delay,freq,condition,trials.thisRepN,trials.thisTrialN,trials.thisN,trials.thisIndex,polygon.started,polygon_2.started,key_resp.started,polygon.stopped,key_resp.keys,key_resp.rt,sound_1.started,text.started,textbox.started,button.started,textbox.text,button.numClicks,button.timesOn,button.timesOff,sound_1.stopped,participant,session,date,expName,psychopyVersion,frameRate,
0.7,1000,exp,0,0,0,11,32.84553460008465,33.823566700099036,33.823566700099036,33.85659119999036,space,0.4028622000478208,34.95670529003255,35.26878250017762,35.26878250017762,35.26878250017762,595,1,[3.1604385001119226],[3.160443800035864],,347898,001,2022-11-06_18h50.48.193,Intentional Binding Task,2022.2.2,60.09781522125146,
0.7,1000,exp,0,1,1,5,38.40588490013033,39.405965300044045,39.405965300044045,39.405965300044045,space,0.39036779990419745,40.52223239014857,40.82244500005618,40.82244500005618,40.82244500005618,153,2,"[3.1604385001119226, 4.66554980003275]","[3.160443800035864, 4.665553899947554]",40.82244500005618,347898,001,2022-11-06_18h50.48.193,Intentional Binding Task,2022.2.2,60.09781522125146,
0.1,1000,exp,0,2,2,9,45.48860420007259,46.48841440002434,46.48841440002434,46.48841440002434,space,0.41769969975575805,47.03826538999565,47.33833010005765,47.33833010005765,47.33833010005765,235,3,"[3.1604385001119226, 4.66554980003275, 2.1151699000038207]","[3.160443800035864, 4.665553899947554, 2.1151723999064416]",,347898,001,2022-11-06_18h50.48.193,Intentional Binding Task,2022.2.2,60.09781522125146,
0.4,1000,exp,0,3,3,7,49.45447260001674,50.454543200088665,50.454543200088665,50.454543200088665,space,0.9257269997615367,51.80436889003031,52.104200900066644,52.104200900066644,52.104200900066644,264,4,"[3.1604385001119226, 4.66554980003275, 2.1151699000038207, 1.3490667999722064]","[3.160443800035864, 4.665553899947554, 2.1151723999064416, 1.349069399992004]",,347898,001,2022-11-06_18h50.48.193,Intentional Binding Task,2022.2.2,60.09781522125146,
0.7,400,unexp,0,4,4,2,53.454098800197244,54.45386930019595,54.45386930019595,54.45386930019595,space,0.50048129982315,55.6702971899882,55.9704856001772,55.9704856001772,55.9704856001772,432,5,"[3.1604385001119226, 4.66554980003275, 2.1151699000038207, 1.3490667999722064, 3.249307099962607]","[3.160443800035864, 4.665553899947554, 2.1151723999064416, 1.349069399992004, 3.2493096999824047]",55.9704856001772,347898,001,2022-11-06_18h50.48.193,Intentional Binding Task,2022.2.2,60.09781522125146,
0.1,1000,exp,0,5,5,3,59.22001470020041,60.22014730004594,60.22014730004594,60.22014730004594,space,0.34008489991538227,60.68651768998243,60.986460000043735,60.986460000043735,60.986460000043735,465,6,"[3.1604385001119226, 4.66554980003275, 2.1151699000038207, 1.3490667999722064, 3.249307099962607, 2.5823137001134455]","[3.160443800035864, 4.665553899947554, 2.1151723999064416, 1.349069399992004, 3.2493096999824047, 2.582316300133243]",,347898,001,2022-11-06_18h50.48.193,Intentional Binding Task,2022.2.2,60.09781522125146,
0.4,1000,exp,0,6,6,10,63.56951930001378,64.56943850009702,64.56943850009702,64.56943850009702,space,0.6646584998816252,65.65244889017194,65.95262600015849,65.95262600015849,65.95262600015849,215,7,"[3.1604385001119226, 4.66554980003275, 2.1151699000038207, 1.3490667999722064, 3.249307099962607, 2.5823137001134455, 1.6659322001505643]","[3.160443800035864, 4.665553899947554, 2.1151723999064416, 1.349069399992004, 3.2493096999824047, 2.582316300133243, 1.6659347000531852]",65.95262600015849,347898,001,2022-11-06_18h50.48.193,Intentional Binding Task,2022.2.2,60.09781522125146,
0.4,1000,exp,0,7,7,4,67.61889749998227,68.61903630010784,68.61903630010784,68.61903630010784,space,0.47202149988152087,69.51890179016627,69.81867479998618,69.81867479998618,69.81867479998618,465,8,"[3.1604385001119226, 4.66554980003275, 2.1151699000038207, 1.3490667999722064, 3.249307099962607, 2.5823137001134455, 1.6659322001505643, 1.0663134001661092]","[3.160443800035864, 4.665553899947554, 2.1151723999064416, 1.349069399992004, 3.2493096999824047, 2.582316300133243, 1.6659347000531852, 1.0663169000763446]",,347898,001,2022-11-06_18h50.48.193,Intentional Binding Task,2022.2.2,60.09781522125146,
0.7,1000,exp,0,8,8,8,70.88518230011687,71.88508110004477,71.88508110004477,71.88508110004477,space,1.438855899963528,74.05149169000796,74.35150990006514,74.35150990006514,74.35150990006514,23,9,"[3.1604385001119226, 4.66554980003275, 2.1151699000038207, 1.3490667999722064, 3.249307099962607, 2.5823137001134455, 1.6659322001505643, 1.0663134001661092, 1.4994640999939293]","[3.160443800035864, 4.665553899947554, 2.1151723999064416, 1.349069399992004, 3.2493096999824047, 2.582316300133243, 1.6659347000531852, 1.0663169000763446, 1.499466799898073]",,347898,001,2022-11-06_18h50.48.193,Intentional Binding Task,2022.2.2,60.09781522125146,
0.1,400,unexp,0,9,9,0,75.85126530006528,76.85106230014935,76.85106230014935,76.85106230014935,space,2.2031645998358727,79.18402799000032,79.48404270014726,79.48404270014726,79.48404270014726,56,10,"[3.1604385001119226, 4.66554980003275, 2.1151699000038207, 1.3490667999722064, 3.249307099962607, 2.5823137001134455, 1.6659322001505643, 1.0663134001661092, 1.4994640999939293, 2.048883599927649]","[3.160443800035864, 4.665553899947554, 2.1151723999064416, 1.349069399992004, 3.2493096999824047, 2.582316300133243, 1.6659347000531852, 1.0663169000763446, 1.499466799898073, 2.0488861999474466]",79.48404270014726,347898,001,2022-11-06_18h50.48.193,Intentional Binding Task,2022.2.2,60.09781522125146,
0.1,1000,exp,0,10,10,6,81.53388160001487,82.53374390001409,82.53374390001409,82.53374390001409,space,0.3139875999186188,82.9668505901005,83.2669024001807,83.2669024001807,83.2669024001807,32,11,"[3.1604385001119226, 4.66554980003275, 2.1151699000038207, 1.3490667999722064, 3.249307099962607, 2.5823137001134455, 1.6659322001505643, 1.0663134001661092, 1.4994640999939293, 2.048883599927649, 1.315833600005135]","[3.160443800035864, 4.665553899947554, 2.1151723999064416, 1.349069399992004, 3.2493096999824047, 2.582316300133243, 1.6659347000531852, 1.0663169000763446, 1.499466799898073, 2.0488861999474466, 1.3158364000264555]",,347898,001,2022-11-06_18h50.48.193,Intentional Binding Task,2022.2.2,60.09781522125146,
0.4,400,unexp,0,11,11,1,84.58354700007476,85.58356510009617,85.58356510009617,85.58356510009617,space,1.153775599785149,87.16635289010591,87.46648030006327,87.46648030006327,87.46648030006327,56,12,"[3.1604385001119226, 4.66554980003275, 2.1151699000038207, 1.3490667999722064, 3.249307099962607, 2.5823137001134455, 1.6659322001505643, 1.0663134001661092, 1.4994640999939293, 2.048883599927649, 1.315833600005135, 2.7825339001137763]","[3.160443800035864, 4.665553899947554, 2.1151723999064416, 1.349069399992004, 3.2493096999824047, 2.582316300133243, 1.6659347000531852, 1.0663169000763446, 1.499466799898073, 2.0488861999474466, 1.3158364000264555, 2.782537200022489]",87.46648030006327,347898,001,2022-11-06_18h50.48.193,Intentional Binding Task,2022.2.2,60.09781522125146,
0.7,1000,exp,1,0,12,11,90.24938210006803,91.24929690011777,91.24929690011777,91.24929690011777,space,0.7679540996905416,92.74906289009377,93.04903870006092,93.04903870006092,93.04903870006092,89,13,"[3.1604385001119226, 4.66554980003275, 2.1151699000038207, 1.3490667999722064, 3.249307099962607, 2.5823137001134455, 1.6659322001505643, 1.0663134001661092, 1.4994640999939293, 2.048883599927649, 1.315833600005135, 2.7825339001137763, 1.382040100172162]","[3.160443800035864, 4.665553899947554, 2.1151723999064416, 1.349069399992004, 3.2493096999824047, 2.582316300133243, 1.6659347000531852, 1.0663169000763446, 1.499466799898073, 2.0488861999474466, 1.3158364000264555, 2.782537200022489, 1.3820427001919597]",,347898,001,2022-11-06_18h50.48.193,Intentional Binding Task,2022.2.2,60.09781522125146,
0.1,400,unexp,1,1,13,0,94.43237530020997,95.41551100020297,95.41551100020297,95.43227540003136,space,0.44748249975964427,95.98197909016162,96.2822319001425,96.2822319001425,96.2822319001425,45,14,"[3.1604385001119226, 4.66554980003275, 2.1151699000038207, 1.3490667999722064, 3.249307099962607, 2.5823137001134455, 1.6659322001505643, 1.0663134001661092, 1.4994640999939293, 2.048883599927649, 1.315833600005135, 2.7825339001137763, 1.382040100172162, 1.3659227997995913]","[3.160443800035864, 4.665553899947554, 2.1151723999064416, 1.349069399992004, 3.2493096999824047, 2.582316300133243, 1.6659347000531852, 1.0663169000763446, 1.499466799898073, 2.0488861999474466, 1.3158364000264555, 2.782537200022489, 1.3820427001919597, 1.3659259998239577]",,347898,001,2022-11-06_18h50.48.193,Intentional Binding Task,2022.2.2,60.09781522125146,
0.4,1000,exp,1,2,14,10,97.64833710016683,98.64824160002172,98.64824160002172,98.64824160002172,space,0.3409468000754714,99.41464539002627,99.71491760015488,99.71491760015488,99.71491760015488,45,15,"[3.1604385001119226, 4.66554980003275, 2.1151699000038207, 1.3490667999722064, 3.249307099962607, 2.5823137001134455, 1.6659322001505643, 1.0663134001661092, 1.4994640999939293, 2.048883599927649, 1.315833600005135, 2.7825339001137763, 1.382040100172162, 1.3659227997995913, 1.415445800172165]","[3.160443800035864, 4.665553899947554, 2.1151723999064416, 1.349069399992004, 3.2493096999824047, 2.582316300133243, 1.6659347000531852, 1.0663169000763446, 1.499466799898073, 2.0488861999474466, 1.3158364000264555, 2.782537200022489, 1.3820427001919597, 1.3659259998239577, 1.415448300074786]",99.71491760015488,347898,001,2022-11-06_18h50.48.193,Intentional Binding Task,2022.2.2,60.09781522125146,
0.1,1000,exp,1,3,15,9,101.13133890018798,102.13123480021022,102.13123480021022,102.13123480021022,space,0.45187700004316866,102.7144283900503,103.0144791000057,103.0144791000057,103.0144791000057,78,16,"[3.1604385001119226, 4.66554980003275, 2.1151699000038207, 1.3490667999722064, 3.249307099962607, 2.5823137001134455, 1.6659322001505643, 1.0663134001661092, 1.4994640999939293, 2.048883599927649, 1.315833600005135, 2.7825339001137763, 1.382040100172162, 1.3659227997995913, 1.415445800172165, 1.2659491000231355]","[3.160443800035864, 4.665553899947554, 2.1151723999064416, 1.349069399992004, 3.2493096999824047, 2.582316300133243, 1.6659347000531852, 1.0663169000763446, 1.499466799898073, 2.0488861999474466, 1.3158364000264555, 2.782537200022489, 1.3820427001919597, 1.3659259998239577, 1.415448300074786, 1.2659527000505477]",,347898,001,2022-11-06_18h50.48.193,Intentional Binding Task,2022.2.2,60.09781522125146,
0.4,400,unexp,1,4,16,1,104.28103510010988,105.28086620010436,105.28086620010436,105.28086620010436,space,0.44456640002317727,106.14737239005044,106.44745610002428,106.44745610002428,106.44745610002428,78,17,"[3.1604385001119226, 4.66554980003275, 2.1151699000038207, 1.3490667999722064, 3.249307099962607, 2.5823137001134455, 1.6659322001505643, 1.0663134001661092, 1.4994640999939293, 2.048883599927649, 1.315833600005135, 2.7825339001137763, 1.382040100172162, 1.3659227997995913, 1.415445800172165, 1.2659491000231355, 1.2492968998849392]","[3.160443800035864, 4.665553899947554, 2.1151723999064416, 1.349069399992004, 3.2493096999824047, 2.582316300133243, 1.6659347000531852, 1.0663169000763446, 1.499466799898073, 2.0488861999474466, 1.3158364000264555, 2.782537200022489, 1.3820427001919597, 1.3659259998239577, 1.415448300074786, 1.2659527000505477, 1.2492994999047369]",,347898,001,2022-11-06_18h50.48.193,Intentional Binding Task,2022.2.2,60.09781522125146,
0.7,1000,exp,1,5,17,8,107.69705150020309,108.69715460017323,108.69715460017323,108.69715460017323,space,0.36455049994401634,109.78057528999634,110.08008320000954,110.08008320000954,110.08008320000954,23,18,"[3.1604385001119226, 4.66554980003275, 2.1151699000038207, 1.3490667999722064, 3.249307099962607, 2.5823137001134455, 1.6659322001505643, 1.0663134001661092, 1.4994640999939293, 2.048883599927649, 1.315833600005135, 2.7825339001137763, 1.382040100172162, 1.3659227997995913, 1.415445800172165, 1.2659491000231355, 1.2492968998849392, 2.165511899860576]","[3.160443800035864, 4.665553899947554, 2.1151723999064416, 1.349069399992004, 3.2493096999824047, 2.582316300133243, 1.6659347000531852, 1.0663169000763446, 1.499466799898073, 2.0488861999474466, 1.3158364000264555, 2.782537200022489, 1.3820427001919597, 1.3659259998239577, 1.415448300074786, 1.2659527000505477, 1.2492994999047369, 2.1655146998818964]",,347898,001,2022-11-06_18h50.48.193,Intentional Binding Task,2022.2.2,60.09781522125146,
0.1,1000,exp,1,6,18,6,112.24654170009308,113.24654270010069,113.24654270010069,113.24654270010069,space,1.1105442999396473,114.47948459014296,114.77969120000489,114.77969120000489,114.77969120000489,151,19,"[3.1604385001119226, 4.66554980003275, 2.1151699000038207, 1.3490667999722064, 3.249307099962607, 2.5823137001134455, 1.6659322001505643, 1.0663134001661092, 1.4994640999939293, 2.048883599927649, 1.315833600005135, 2.7825339001137763, 1.382040100172162, 1.3659227997995913, 1.415445800172165, 1.2659491000231355, 1.2492968998849392, 2.165511899860576, 1.4158975998871028]","[3.160443800035864, 4.665553899947554, 2.1151723999064416, 1.349069399992004, 3.2493096999824047, 2.582316300133243, 1.6659347000531852, 1.0663169000763446, 1.499466799898073, 2.0488861999474466, 1.3158364000264555, 2.782537200022489, 1.3820427001919597, 1.3659259998239577, 1.415448300074786, 1.2659527000505477, 1.2492994999047369, 2.1655146998818964, 1.4159001999069005]",,347898,001,2022-11-06_18h50.48.193,Intentional Binding Task,2022.2.2,60.09781522125146,
0.1,1000,exp,1,7,19,3,116.19606220000423,117.1960569000803,117.1960569000803,117.1960569000803,space,1.1554656997323036,118.47898139003664,118.77898570010439,118.77898570010439,118.77898570010439,465,20,"[3.1604385001119226, 4.66554980003275, 2.1151699000038207, 1.3490667999722064, 3.249307099962607, 2.5823137001134455, 1.6659322001505643, 1.0663134001661092, 1.4994640999939293, 2.048883599927649, 1.315833600005135, 2.7825339001137763, 1.382040100172162, 1.3659227997995913, 1.415445800172165, 1.2659491000231355, 1.2492968998849392, 2.165511899860576, 1.4158975998871028, 1.7657471999991685]","[3.160443800035864, 4.665553899947554, 2.1151723999064416, 1.349069399992004, 3.2493096999824047, 2.582316300133243, 1.6659347000531852, 1.0663169000763446, 1.499466799898073, 2.0488861999474466, 1.3158364000264555, 2.782537200022489, 1.3820427001919597, 1.3659259998239577, 1.415448300074786, 1.2659527000505477, 1.2492994999047369, 2.1655146998818964, 1.4159001999069005, 1.7657496999017894]",,347898,001,2022-11-06_18h50.48.193,Intentional Binding Task,2022.2.2,60.09781522125146,
0.4,1000,exp,1,8,20,7,120.54545109998435,121.54522440000437,121.54522440000437,121.54522440000437,space,1.3629618999548256,123.31213359013199,123.61194350011647,123.61194350011647,123.61194350011647,788,21,"[3.1604385001119226, 4.66554980003275, 2.1151699000038207, 1.3490667999722064, 3.249307099962607, 2.5823137001134455, 1.6659322001505643, 1.0663134001661092, 1.4994640999939293, 2.048883599927649, 1.315833600005135, 2.7825339001137763, 1.382040100172162, 1.3659227997995913, 1.415445800172165, 1.2659491000231355, 1.2492968998849392, 2.165511899860576, 1.4158975998871028, 1.7657471999991685, 2.465776300057769]","[3.160443800035864, 4.665553899947554, 2.1151723999064416, 1.349069399992004, 3.2493096999824047, 2.582316300133243, 1.6659347000531852, 1.0663169000763446, 1.499466799898073, 2.0488861999474466, 1.3158364000264555, 2.782537200022489, 1.3820427001919597, 1.3659259998239577, 1.415448300074786, 1.2659527000505477, 1.2492994999047369, 2.1655146998818964, 1.4159001999069005, 1.7657496999017894, 2.4657789999619126]",123.61194350011647,347898,001,2022-11-06_18h50.48.193,Intentional Binding Task,2022.2.2,60.09781522125146,
0.7,400,unexp,1,9,21,2,126.07819330017082,127.0780941999983,127.0780941999983,127.0780941999983,space,1.7242940997239202,129.52780529009178,129.82770180003718,129.82770180003718,129.82770180003718,132,22,"[3.1604385001119226, 4.66554980003275, 2.1151699000038207, 1.3490667999722064, 3.249307099962607, 2.5823137001134455, 1.6659322001505643, 1.0663134001661092, 1.4994640999939293, 2.048883599927649, 1.315833600005135, 2.7825339001137763, 1.382040100172162, 1.3659227997995913, 1.415445800172165, 1.2659491000231355, 1.2492968998849392, 2.165511899860576, 1.4158975998871028, 1.7657471999991685, 2.465776300057769, 1.582227900158614]","[3.160443800035864, 4.665553899947554, 2.1151723999064416, 1.349069399992004, 3.2493096999824047, 2.582316300133243, 1.6659347000531852, 1.0663169000763446, 1.499466799898073, 2.0488861999474466, 1.3158364000264555, 2.782537200022489, 1.3820427001919597, 1.3659259998239577, 1.415448300074786, 1.2659527000505477, 1.2492994999047369, 2.1655146998818964, 1.4159001999069005, 1.7657496999017894, 2.4657789999619126, 1.5822305001784116]",129.82770180003718,347898,001,2022-11-06_18h50.48.193,Intentional Binding Task,2022.2.2,60.09781522125146,
0.7,1000,exp,1,10,22,5,131.41084150015377,132.41066430020146,132.41066430020146,132.41066430020146,space,0.6666822999250144,133.79386739004403,134.09365320019424,134.09365320019424,134.09365320019424,56,23,"[3.1604385001119226, 4.66554980003275, 2.1151699000038207, 1.3490667999722064, 3.249307099962607, 2.5823137001134455, 1.6659322001505643, 1.0663134001661092, 1.4994640999939293, 2.048883599927649, 1.315833600005135, 2.7825339001137763, 1.382040100172162, 1.3659227997995913, 1.415445800172165, 1.2659491000231355, 1.2492968998849392, 2.165511899860576, 1.4158975998871028, 1.7657471999991685, 2.465776300057769, 1.582227900158614, 1.2824691000860184]","[3.160443800035864, 4.665553899947554, 2.1151723999064416, 1.349069399992004, 3.2493096999824047, 2.582316300133243, 1.6659347000531852, 1.0663169000763446, 1.499466799898073, 2.0488861999474466, 1.3158364000264555, 2.782537200022489, 1.3820427001919597, 1.3659259998239577, 1.415448300074786, 1.2659527000505477, 1.2492994999047369, 2.1655146998818964, 1.4159001999069005, 1.7657496999017894, 2.4657789999619126, 1.5822305001784116, 1.2824725999962538]",134.09365320019424,347898,001,2022-11-06_18h50.48.193,Intentional Binding Task,2022.2.2,60.09781522125146,
0.4,1000,exp,1,11,23,4,135.37687440006994,136.37674500001594,136.37674500001594,136.37674500001594,space,0.3575182999484241,137.1602428901475,137.46006990014575,137.46006990014575,137.46006990014575,59,24,"[3.1604385001119226, 4.66554980003275, 2.1151699000038207, 1.3490667999722064, 3.249307099962607, 2.5823137001134455, 1.6659322001505643, 1.0663134001661092, 1.4994640999939293, 2.048883599927649, 1.315833600005135, 2.7825339001137763, 1.382040100172162, 1.3659227997995913, 1.415445800172165, 1.2659491000231355, 1.2492968998849392, 2.165511899860576, 1.4158975998871028, 1.7657471999991685, 2.465776300057769, 1.582227900158614, 1.2824691000860184, 2.1654391000047326]","[3.160443800035864, 4.665553899947554, 2.1151723999064416, 1.349069399992004, 3.2493096999824047, 2.582316300133243, 1.6659347000531852, 1.0663169000763446, 1.499466799898073, 2.0488861999474466, 1.3158364000264555, 2.782537200022489, 1.3820427001919597, 1.3659259998239577, 1.415448300074786, 1.2659527000505477, 1.2492994999047369, 2.1655146998818964, 1.4159001999069005, 1.7657496999017894, 2.4657789999619126, 1.5822305001784116, 1.2824725999962538, 2.165441600140184]",,347898,001,2022-11-06_18h50.48.193,Intentional Binding Task,2022.2.2,60.09781522125146,
0.4,1000,exp,2,0,24,7,139.62649250007235,140.62629070016555,140.62629070016555,140.62629070016555,space,0.32753909984603524,141.37620819001458,141.67627000017092,141.67627000017092,141.67627000017092,748,25,"[3.1604385001119226, 4.66554980003275, 2.1151699000038207, 1.3490667999722064, 3.249307099962607, 2.5823137001134455, 1.6659322001505643, 1.0663134001661092, 1.4994640999939293, 2.048883599927649, 1.315833600005135, 2.7825339001137763, 1.382040100172162, 1.3659227997995913, 1.415445800172165, 1.2659491000231355, 1.2492968998849392, 2.165511899860576, 1.4158975998871028, 1.7657471999991685, 2.465776300057769, 1.582227900158614, 1.2824691000860184, 2.1654391000047326, 1.3657381001394242]","[3.160443800035864, 4.665553899947554, 2.1151723999064416, 1.349069399992004, 3.2493096999824047, 2.582316300133243, 1.6659347000531852, 1.0663169000763446, 1.499466799898073, 2.0488861999474466, 1.3158364000264555, 2.782537200022489, 1.3820427001919597, 1.3659259998239577, 1.415448300074786, 1.2659527000505477, 1.2492994999047369, 2.1655146998818964, 1.4159001999069005, 1.7657496999017894, 2.4657789999619126, 1.5822305001784116, 1.2824725999962538, 2.165441600140184, 1.3657406999263912]",,347898,001,2022-11-06_18h50.48.193,Intentional Binding Task,2022.2.2,60.09781522125146,
0.4,400,unexp,2,1,25,1,143.04256600001827,144.04247480002232,144.04247480002232,144.04247480002232,space,1.3752583998721093,145.84218369019217,146.14231930021197,146.14231930021197,146.14231930021197,369,26,"[3.1604385001119226, 4.66554980003275, 2.1151699000038207, 1.3490667999722064, 3.249307099962607, 2.5823137001134455, 1.6659322001505643, 1.0663134001661092, 1.4994640999939293, 2.048883599927649, 1.315833600005135, 2.7825339001137763, 1.382040100172162, 1.3659227997995913, 1.415445800172165, 1.2659491000231355, 1.2492968998849392, 2.165511899860576, 1.4158975998871028, 1.7657471999991685, 2.465776300057769, 1.582227900158614, 1.2824691000860184, 2.1654391000047326, 1.3657381001394242, 3.848588699940592]","[3.160443800035864, 4.665553899947554, 2.1151723999064416, 1.349069399992004, 3.2493096999824047, 2.582316300133243, 1.6659347000531852, 1.0663169000763446, 1.499466799898073, 2.0488861999474466, 1.3158364000264555, 2.782537200022489, 1.3820427001919597, 1.3659259998239577, 1.415448300074786, 1.2659527000505477, 1.2492994999047369, 2.1655146998818964, 1.4159001999069005, 1.7657496999017894, 2.4657789999619126, 1.5822305001784116, 1.2824725999962538, 2.165441600140184, 1.3657406999263912, 3.8485912000760436]",,347898,001,2022-11-06_18h50.48.193,Intentional Binding Task,2022.2.2,60.09781522125146,
0.1,1000,exp,2,2,26,6,149.99178250017576,150.991733700037,150.991733700037,150.991733700037,space,0.44233829993754625,151.55823029009625,151.85827140021138,151.85827140021138,151.85827140021138,45,27,"[3.1604385001119226, 4.66554980003275, 2.1151699000038207, 1.3490667999722064, 3.249307099962607, 2.5823137001134455, 1.6659322001505643, 1.0663134001661092, 1.4994640999939293, 2.048883599927649, 1.315833600005135, 2.7825339001137763, 1.382040100172162, 1.3659227997995913, 1.415445800172165, 1.2659491000231355, 1.2492968998849392, 2.165511899860576, 1.4158975998871028, 1.7657471999991685, 2.465776300057769, 1.582227900158614, 1.2824691000860184, 2.1654391000047326, 1.3657381001394242, 3.848588699940592, 1.5654133998323232]","[3.160443800035864, 4.665553899947554, 2.1151723999064416, 1.349069399992004, 3.2493096999824047, 2.582316300133243, 1.6659347000531852, 1.0663169000763446, 1.499466799898073, 2.0488861999474466, 1.3158364000264555, 2.782537200022489, 1.3820427001919597, 1.3659259998239577, 1.415448300074786, 1.2659527000505477, 1.2492994999047369, 2.1655146998818964, 1.4159001999069005, 1.7657496999017894, 2.4657789999619126, 1.5822305001784116, 1.2824725999962538, 2.165441600140184, 1.3657406999263912, 3.8485912000760436, 1.5654160999692976]",,347898,001,2022-11-06_18h50.48.193,Intentional Binding Task,2022.2.2,60.09781522125146,
0.1,400,unexp,2,3,27,0,153.42462280020118,154.4245477002114,154.4245477002114,154.4245477002114,space,0.3317179000005126,154.87455199020914,155.1744209001772,155.1744209001772,155.1744209001772,89,28,"[3.1604385001119226, 4.66554980003275, 2.1151699000038207, 1.3490667999722064, 3.249307099962607, 2.5823137001134455, 1.6659322001505643, 1.0663134001661092, 1.4994640999939293, 2.048883599927649, 1.315833600005135, 2.7825339001137763, 1.382040100172162, 1.3659227997995913, 1.415445800172165, 1.2659491000231355, 1.2492968998849392, 2.165511899860576, 1.4158975998871028, 1.7657471999991685, 2.465776300057769, 1.582227900158614, 1.2824691000860184, 2.1654391000047326, 1.3657381001394242, 3.848588699940592, 1.5654133998323232, 1.382181700086221]","[3.160443800035864, 4.665553899947554, 2.1151723999064416, 1.349069399992004, 3.2493096999824047, 2.582316300133243, 1.6659347000531852, 1.0663169000763446, 1.499466799898073, 2.0488861999474466, 1.3158364000264555, 2.782537200022489, 1.3820427001919597, 1.3659259998239577, 1.415448300074786, 1.2659527000505477, 1.2492994999047369, 2.1655146998818964, 1.4159001999069005, 1.7657496999017894, 2.4657789999619126, 1.5822305001784116, 1.2824725999962538, 2.165441600140184, 1.3657406999263912, 3.8485912000760436, 1.5654160999692976, 1.3821840998716652]",,347898,001,2022-11-06_18h50.48.193,Intentional Binding Task,2022.2.2,60.09781522125146,
0.1,1000,exp,2,4,28,3,156.55761100002564,157.55749720009044,157.55749720009044,157.55749720009044,space,0.6085804998874664,158.2905647900421,158.59047960001044,158.59047960001044,158.59047960001044,65,29,"[3.1604385001119226, 4.66554980003275, 2.1151699000038207, 1.3490667999722064, 3.249307099962607, 2.5823137001134455, 1.6659322001505643, 1.0663134001661092, 1.4994640999939293, 2.048883599927649, 1.315833600005135, 2.7825339001137763, 1.382040100172162, 1.3659227997995913, 1.415445800172165, 1.2659491000231355, 1.2492968998849392, 2.165511899860576, 1.4158975998871028, 1.7657471999991685, 2.465776300057769, 1.582227900158614, 1.2824691000860184, 2.1654391000047326, 1.3657381001394242, 3.848588699940592, 1.5654133998323232, 1.382181700086221, 1.2157598999328911]","[3.160443800035864, 4.665553899947554, 2.1151723999064416, 1.349069399992004, 3.2493096999824047, 2.582316300133243, 1.6659347000531852, 1.0663169000763446, 1.499466799898073, 2.0488861999474466, 1.3158364000264555, 2.782537200022489, 1.3820427001919597, 1.3659259998239577, 1.415448300074786, 1.2659527000505477, 1.2492994999047369, 2.1655146998818964, 1.4159001999069005, 1.7657496999017894, 2.4657789999619126, 1.5822305001784116, 1.2824725999962538, 2.165441600140184, 1.3657406999263912, 3.8485912000760436, 1.5654160999692976, 1.3821840998716652, 1.2157628000713885]",,347898,001,2022-11-06_18h50.48.193,Intentional Binding Task,2022.2.2,60.09781522125146,
0.1,1000,exp,2,5,29,9,159.8070989002008,160.80705990013666,160.80705990013666,160.80705990013666,space,0.4808950999286026,161.40692199012264,161.70693830004893,161.70693830004893,161.70693830004893,23,30,"[3.1604385001119226, 4.66554980003275, 2.1151699000038207, 1.3490667999722064, 3.249307099962607, 2.5823137001134455, 1.6659322001505643, 1.0663134001661092, 1.4994640999939293, 2.048883599927649, 1.315833600005135, 2.7825339001137763, 1.382040100172162, 1.3659227997995913, 1.415445800172165, 1.2659491000231355, 1.2492968998849392, 2.165511899860576, 1.4158975998871028, 1.7657471999991685, 2.465776300057769, 1.582227900158614, 1.2824691000860184, 2.1654391000047326, 1.3657381001394242, 3.848588699940592, 1.5654133998323232, 1.382181700086221, 1.2157598999328911, 1.0657147001475096]","[3.160443800035864, 4.665553899947554, 2.1151723999064416, 1.349069399992004, 3.2493096999824047, 2.582316300133243, 1.6659347000531852, 1.0663169000763446, 1.499466799898073, 2.0488861999474466, 1.3158364000264555, 2.782537200022489, 1.3820427001919597, 1.3659259998239577, 1.415448300074786, 1.2659527000505477, 1.2492994999047369, 2.1655146998818964, 1.4159001999069005, 1.7657496999017894, 2.4657789999619126, 1.5822305001784116, 1.2824725999962538, 2.165441600140184, 1.3657406999263912, 3.8485912000760436, 1.5654160999692976, 1.3821840998716652, 1.2157628000713885, 1.0657171001657844]",,347898,001,2022-11-06_18h50.48.193,Intentional Binding Task,2022.2.2,60.09781522125146,
0.4,1000,exp,2,6,30,4,162.77352460008115,163.7734567001462,163.7734567001462,163.7734567001462,space,0.33634969987906516,164.54000249006785,164.83979040011764,164.83979040011764,164.83979040011764,88,31,"[3.1604385001119226, 4.66554980003275, 2.1151699000038207, 1.3490667999722064, 3.249307099962607, 2.5823137001134455, 1.6659322001505643, 1.0663134001661092, 1.4994640999939293, 2.048883599927649, 1.315833600005135, 2.7825339001137763, 1.382040100172162, 1.3659227997995913, 1.415445800172165, 1.2659491000231355, 1.2492968998849392, 2.165511899860576, 1.4158975998871028, 1.7657471999991685, 2.465776300057769, 1.582227900158614, 1.2824691000860184, 2.1654391000047326, 1.3657381001394242, 3.848588699940592, 1.5654133998323232, 1.382181700086221, 1.2157598999328911, 1.0657147001475096, 2.1652312001679093]","[3.160443800035864, 4.665553899947554, 2.1151723999064416, 1.349069399992004, 3.2493096999824047, 2.582316300133243, 1.6659347000531852, 1.0663169000763446, 1.499466799898073, 2.0488861999474466, 1.3158364000264555, 2.782537200022489, 1.3820427001919597, 1.3659259998239577, 1.415448300074786, 1.2659527000505477, 1.2492994999047369, 2.1655146998818964, 1.4159001999069005, 1.7657496999017894, 2.4657789999619126, 1.5822305001784116, 1.2824725999962538, 2.165441600140184, 1.3657406999263912, 3.8485912000760436, 1.5654160999692976, 1.3821840998716652, 1.2157628000713885, 1.0657171001657844, 2.1652349000796676]",164.83979040011764,347898,001,2022-11-06_18h50.48.193,Intentional Binding Task,2022.2.2,60.09781522125146,
0.4,1000,exp,2,7,31,10,167.00632859999314,168.00610200013034,168.00610200013034,168.00610200013034,space,0.8005193998105824,169.2224913902115,169.52256120019592,169.52256120019592,169.52256120019592,3,32,"[3.1604385001119226, 4.66554980003275, 2.1151699000038207, 1.3490667999722064, 3.249307099962607, 2.5823137001134455, 1.6659322001505643, 1.0663134001661092, 1.4994640999939293, 2.048883599927649, 1.315833600005135, 2.7825339001137763, 1.382040100172162, 1.3659227997995913, 1.415445800172165, 1.2659491000231355, 1.2492968998849392, 2.165511899860576, 1.4158975998871028, 1.7657471999991685, 2.465776300057769, 1.582227900158614, 1.2824691000860184, 2.1654391000047326, 1.3657381001394242, 3.848588699940592, 1.5654133998323232, 1.382181700086221, 1.2157598999328911, 1.0657147001475096, 2.1652312001679093, 1.0660908999852836]","[3.160443800035864, 4.665553899947554, 2.1151723999064416, 1.349069399992004, 3.2493096999824047, 2.582316300133243, 1.6659347000531852, 1.0663169000763446, 1.499466799898073, 2.0488861999474466, 1.3158364000264555, 2.782537200022489, 1.3820427001919597, 1.3659259998239577, 1.415448300074786, 1.2659527000505477, 1.2492994999047369, 2.1655146998818964, 1.4159001999069005, 1.7657496999017894, 2.4657789999619126, 1.5822305001784116, 1.2824725999962538, 2.165441600140184, 1.3657406999263912, 3.8485912000760436, 1.5654160999692976, 1.3821840998716652, 1.2157628000713885, 1.0657171001657844, 2.1652349000796676, 1.0660935000050813]",,347898,001,2022-11-06_18h50.48.193,Intentional Binding Task,2022.2.2,60.09781522125146,
0.7,1000,exp,2,8,32,8,170.58912620018236,171.58898960007355,171.58898960007355,171.58898960007355,space,0.4503765997942537,172.75542039019055,173.0555085001979,173.0555085001979,173.0555085001979,65,33,"[3.1604385001119226, 4.66554980003275, 2.1151699000038207, 1.3490667999722064, 3.249307099962607, 2.5823137001134455, 1.6659322001505643, 1.0663134001661092, 1.4994640999939293, 2.048883599927649, 1.315833600005135, 2.7825339001137763, 1.382040100172162, 1.3659227997995913, 1.415445800172165, 1.2659491000231355, 1.2492968998849392, 2.165511899860576, 1.4158975998871028, 1.7657471999991685, 2.465776300057769, 1.582227900158614, 1.2824691000860184, 2.1654391000047326, 1.3657381001394242, 3.848588699940592, 1.5654133998323232, 1.382181700086221, 1.2157598999328911, 1.0657147001475096, 2.1652312001679093, 1.0660908999852836, 1.515967199811712]","[3.160443800035864, 4.665553899947554, 2.1151723999064416, 1.349069399992004, 3.2493096999824047, 2.582316300133243, 1.6659347000531852, 1.0663169000763446, 1.499466799898073, 2.0488861999474466, 1.3158364000264555, 2.782537200022489, 1.3820427001919597, 1.3659259998239577, 1.415448300074786, 1.2659527000505477, 1.2492994999047369, 2.1655146998818964, 1.4159001999069005, 1.7657496999017894, 2.4657789999619126, 1.5822305001784116, 1.2824725999962538, 2.165441600140184, 1.3657406999263912, 3.8485912000760436, 1.5654160999692976, 1.3821840998716652, 1.2157628000713885, 1.0657171001657844, 2.1652349000796676, 1.0660935000050813, 1.5159701998345554]",,347898,001,2022-11-06_18h50.48.193,Intentional Binding Task,2022.2.2,60.09781522125146,
0.7,400,unexp,2,9,33,2,174.57197520020418,175.57181280013174,175.57181280013174,175.57181280013174,space,0.46538149984553456,176.7549417900387,177.05490560014732,177.05490560014732,177.05490560014732,48,34,"[3.1604385001119226, 4.66554980003275, 2.1151699000038207, 1.3490667999722064, 3.249307099962607, 2.5823137001134455, 1.6659322001505643, 1.0663134001661092, 1.4994640999939293, 2.048883599927649, 1.315833600005135, 2.7825339001137763, 1.382040100172162, 1.3659227997995913, 1.415445800172165, 1.2659491000231355, 1.2492968998849392, 2.165511899860576, 1.4158975998871028, 1.7657471999991685, 2.465776300057769, 1.582227900158614, 1.2824691000860184, 2.1654391000047326, 1.3657381001394242, 3.848588699940592, 1.5654133998323232, 1.382181700086221, 1.2157598999328911, 1.0657147001475096, 2.1652312001679093, 1.0660908999852836, 1.515967199811712, 1.3988399000372738]","[3.160443800035864, 4.665553899947554, 2.1151723999064416, 1.349069399992004, 3.2493096999824047, 2.582316300133243, 1.6659347000531852, 1.0663169000763446, 1.499466799898073, 2.0488861999474466, 1.3158364000264555, 2.782537200022489, 1.3820427001919597, 1.3659259998239577, 1.415448300074786, 1.2659527000505477, 1.2492994999047369, 2.1655146998818964, 1.4159001999069005, 1.7657496999017894, 2.4657789999619126, 1.5822305001784116, 1.2824725999962538, 2.165441600140184, 1.3657406999263912, 3.8485912000760436, 1.5654160999692976, 1.3821840998716652, 1.2157628000713885, 1.0657171001657844, 2.1652349000796676, 1.0660935000050813, 1.5159701998345554, 1.3988426001742482]",,347898,001,2022-11-06_18h50.48.193,Intentional Binding Task,2022.2.2,60.09781522125146,
0.7,1000,exp,2,10,34,5,178.454825400142,179.4546026000753,179.4546026000753,179.4546026000753,space,0.3318805997259915,180.50454039000905,180.8044280000031,180.8044280000031,180.8044280000031,56,35,"[3.1604385001119226, 4.66554980003275, 2.1151699000038207, 1.3490667999722064, 3.249307099962607, 2.5823137001134455, 1.6659322001505643, 1.0663134001661092, 1.4994640999939293, 2.048883599927649, 1.315833600005135, 2.7825339001137763, 1.382040100172162, 1.3659227997995913, 1.415445800172165, 1.2659491000231355, 1.2492968998849392, 2.165511899860576, 1.4158975998871028, 1.7657471999991685, 2.465776300057769, 1.582227900158614, 1.2824691000860184, 2.1654391000047326, 1.3657381001394242, 3.848588699940592, 1.5654133998323232, 1.382181700086221, 1.2157598999328911, 1.0657147001475096, 2.1652312001679093, 1.0660908999852836, 1.515967199811712, 1.3988399000372738, 1.4155405000783503]","[3.160443800035864, 4.665553899947554, 2.1151723999064416, 1.349069399992004, 3.2493096999824047, 2.582316300133243, 1.6659347000531852, 1.0663169000763446, 1.499466799898073, 2.0488861999474466, 1.3158364000264555, 2.782537200022489, 1.3820427001919597, 1.3659259998239577, 1.415448300074786, 1.2659527000505477, 1.2492994999047369, 2.1655146998818964, 1.4159001999069005, 1.7657496999017894, 2.4657789999619126, 1.5822305001784116, 1.2824725999962538, 2.165441600140184, 1.3657406999263912, 3.8485912000760436, 1.5654160999692976, 1.3821840998716652, 1.2157628000713885, 1.0657171001657844, 2.1652349000796676, 1.0660935000050813, 1.5159701998345554, 1.3988426001742482, 1.415543100098148]",,347898,001,2022-11-06_18h50.48.193,Intentional Binding Task,2022.2.2,60.09781522125146,
0.7,1000,exp,2,11,35,11,182.2209319001995,183.22086480003782,183.22086480003782,183.22086480003782,space,0.5557362998370081,184.50389749011956,184.8040736000985,184.8040736000985,184.8040736000985,889,36,"[3.1604385001119226, 4.66554980003275, 2.1151699000038207, 1.3490667999722064, 3.249307099962607, 2.5823137001134455, 1.6659322001505643, 1.0663134001661092, 1.4994640999939293, 2.048883599927649, 1.315833600005135, 2.7825339001137763, 1.382040100172162, 1.3659227997995913, 1.415445800172165, 1.2659491000231355, 1.2492968998849392, 2.165511899860576, 1.4158975998871028, 1.7657471999991685, 2.465776300057769, 1.582227900158614, 1.2824691000860184, 2.1654391000047326, 1.3657381001394242, 3.848588699940592, 1.5654133998323232, 1.382181700086221, 1.2157598999328911, 1.0657147001475096, 2.1652312001679093, 1.0660908999852836, 1.515967199811712, 1.3988399000372738, 1.4155405000783503, 1.3161754999309778]","[3.160443800035864, 4.665553899947554, 2.1151723999064416, 1.349069399992004, 3.2493096999824047, 2.582316300133243, 1.6659347000531852, 1.0663169000763446, 1.499466799898073, 2.0488861999474466, 1.3158364000264555, 2.782537200022489, 1.3820427001919597, 1.3659259998239577, 1.415448300074786, 1.2659527000505477, 1.2492994999047369, 2.1655146998818964, 1.4159001999069005, 1.7657496999017894, 2.4657789999619126, 1.5822305001784116, 1.2824725999962538, 2.165441600140184, 1.3657406999263912, 3.8485912000760436, 1.5654160999692976, 1.3821840998716652, 1.2157628000713885, 1.0657171001657844, 2.1652349000796676, 1.0660935000050813, 1.5159701998345554, 1.3988426001742482, 1.415543100098148, 1.3161792000755668]",,347898,001,2022-11-06_18h50.48.193,Intentional Binding Task,2022.2.2,60.09781522125146,
0.1,1000,exp,3,0,36,3,186.12032990017906,187.1204082001932,187.1204082001932,187.1204082001932,space,0.47611969988793135,187.72047609011642,188.02030099998228,188.02030099998228,188.02030099998228,456,37,"[3.1604385001119226, 4.66554980003275, 2.1151699000038207, 1.3490667999722064, 3.249307099962607, 2.5823137001134455, 1.6659322001505643, 1.0663134001661092, 1.4994640999939293, 2.048883599927649, 1.315833600005135, 2.7825339001137763, 1.382040100172162, 1.3659227997995913, 1.415445800172165, 1.2659491000231355, 1.2492968998849392, 2.165511899860576, 1.4158975998871028, 1.7657471999991685, 2.465776300057769, 1.582227900158614, 1.2824691000860184, 2.1654391000047326, 1.3657381001394242, 3.848588699940592, 1.5654133998323232, 1.382181700086221, 1.2157598999328911, 1.0657147001475096, 2.1652312001679093, 1.0660908999852836, 1.515967199811712, 1.3988399000372738, 1.4155405000783503, 1.3161754999309778, 3.5652743000537157]","[3.160443800035864, 4.665553899947554, 2.1151723999064416, 1.349069399992004, 3.2493096999824047, 2.582316300133243, 1.6659347000531852, 1.0663169000763446, 1.499466799898073, 2.0488861999474466, 1.3158364000264555, 2.782537200022489, 1.3820427001919597, 1.3659259998239577, 1.415448300074786, 1.2659527000505477, 1.2492994999047369, 2.1655146998818964, 1.4159001999069005, 1.7657496999017894, 2.4657789999619126, 1.5822305001784116, 1.2824725999962538, 2.165441600140184, 1.3657406999263912, 3.8485912000760436, 1.5654160999692976, 1.3821840998716652, 1.2157628000713885, 1.0657171001657844, 2.1652349000796676, 1.0660935000050813, 1.5159701998345554, 1.3988426001742482, 1.415543100098148, 1.3161792000755668, 3.565277799963951]",,347898,001,2022-11-06_18h50.48.193,Intentional Binding Task,2022.2.2,60.09781522125146,
0.4,1000,exp,3,1,37,4,191.58637180016376,192.5863740001805,192.5863740001805,192.5863740001805,space,0.33568519982509315,193.35282519008032,193.6529265001882,193.6529265001882,193.6529265001882,15,38,"[3.1604385001119226, 4.66554980003275, 2.1151699000038207, 1.3490667999722064, 3.249307099962607, 2.5823137001134455, 1.6659322001505643, 1.0663134001661092, 1.4994640999939293, 2.048883599927649, 1.315833600005135, 2.7825339001137763, 1.382040100172162, 1.3659227997995913, 1.415445800172165, 1.2659491000231355, 1.2492968998849392, 2.165511899860576, 1.4158975998871028, 1.7657471999991685, 2.465776300057769, 1.582227900158614, 1.2824691000860184, 2.1654391000047326, 1.3657381001394242, 3.848588699940592, 1.5654133998323232, 1.382181700086221, 1.2157598999328911, 1.0657147001475096, 2.1652312001679093, 1.0660908999852836, 1.515967199811712, 1.3988399000372738, 1.4155405000783503, 1.3161754999309778, 3.5652743000537157, 1.316194900078699]","[3.160443800035864, 4.665553899947554, 2.1151723999064416, 1.349069399992004, 3.2493096999824047, 2.582316300133243, 1.6659347000531852, 1.0663169000763446, 1.499466799898073, 2.0488861999474466, 1.3158364000264555, 2.782537200022489, 1.3820427001919597, 1.3659259998239577, 1.415448300074786, 1.2659527000505477, 1.2492994999047369, 2.1655146998818964, 1.4159001999069005, 1.7657496999017894, 2.4657789999619126, 1.5822305001784116, 1.2824725999962538, 2.165441600140184, 1.3657406999263912, 3.8485912000760436, 1.5654160999692976, 1.3821840998716652, 1.2157628000713885, 1.0657171001657844, 2.1652349000796676, 1.0660935000050813, 1.5159701998345554, 1.3988426001742482, 1.415543100098148, 1.3161792000755668, 3.565277799963951, 1.3161983001045883]",193.6529265001882,347898,001,2022-11-06_18h50.48.193,Intentional Binding Task,2022.2.2,60.09781522125146,
0.4,1000,exp,3,2,38,7,194.96941740019247,195.96929300017655,195.96929300017655,195.96929300017655,space,0.5321718000341207,196.91905419006943,197.21899220021442,197.21899220021442,197.21899220021442,1,39,"[3.1604385001119226, 4.66554980003275, 2.1151699000038207, 1.3490667999722064, 3.249307099962607, 2.5823137001134455, 1.6659322001505643, 1.0663134001661092, 1.4994640999939293, 2.048883599927649, 1.315833600005135, 2.7825339001137763, 1.382040100172162, 1.3659227997995913, 1.415445800172165, 1.2659491000231355, 1.2492968998849392, 2.165511899860576, 1.4158975998871028, 1.7657471999991685, 2.465776300057769, 1.582227900158614, 1.2824691000860184, 2.1654391000047326, 1.3657381001394242, 3.848588699940592, 1.5654133998323232, 1.382181700086221, 1.2157598999328911, 1.0657147001475096, 2.1652312001679093, 1.0660908999852836, 1.515967199811712, 1.3988399000372738, 1.4155405000783503, 1.3161754999309778, 3.5652743000537157, 1.316194900078699, 1.0657739001326263]","[3.160443800035864, 4.665553899947554, 2.1151723999064416, 1.349069399992004, 3.2493096999824047, 2.582316300133243, 1.6659347000531852, 1.0663169000763446, 1.499466799898073, 2.0488861999474466, 1.3158364000264555, 2.782537200022489, 1.3820427001919597, 1.3659259998239577, 1.415448300074786, 1.2659527000505477, 1.2492994999047369, 2.1655146998818964, 1.4159001999069005, 1.7657496999017894, 2.4657789999619126, 1.5822305001784116, 1.2824725999962538, 2.165441600140184, 1.3657406999263912, 3.8485912000760436, 1.5654160999692976, 1.3821840998716652, 1.2157628000713885, 1.0657171001657844, 2.1652349000796676, 1.0660935000050813, 1.5159701998345554, 1.3988426001742482, 1.415543100098148, 1.3161792000755668, 3.565277799963951, 1.3161983001045883, 1.065776500152424]",,347898,001,2022-11-06_18h50.48.193,Intentional Binding Task,2022.2.2,60.09781522125146,
0.1,1000,exp,3,3,39,6,198.28547360002995,199.2687921000179,199.2687921000179,199.28523500007577,space,0.48346160002984107,199.86863339007832,200.1687057001982,200.1687057001982,200.1687057001982,6,40,"[3.1604385001119226, 4.66554980003275, 2.1151699000038207, 1.3490667999722064, 3.249307099962607, 2.5823137001134455, 1.6659322001505643, 1.0663134001661092, 1.4994640999939293, 2.048883599927649, 1.315833600005135, 2.7825339001137763, 1.382040100172162, 1.3659227997995913, 1.415445800172165, 1.2659491000231355, 1.2492968998849392, 2.165511899860576, 1.4158975998871028, 1.7657471999991685, 2.465776300057769, 1.582227900158614, 1.2824691000860184, 2.1654391000047326, 1.3657381001394242, 3.848588699940592, 1.5654133998323232, 1.382181700086221, 1.2157598999328911, 1.0657147001475096, 2.1652312001679093, 1.0660908999852836, 1.515967199811712, 1.3988399000372738, 1.4155405000783503, 1.3161754999309778, 3.5652743000537157, 1.316194900078699, 1.0657739001326263, 0.8987674999516457]","[3.160443800035864, 4.665553899947554, 2.1151723999064416, 1.349069399992004, 3.2493096999824047, 2.582316300133243, 1.6659347000531852, 1.0663169000763446, 1.499466799898073, 2.0488861999474466, 1.3158364000264555, 2.782537200022489, 1.3820427001919597, 1.3659259998239577, 1.415448300074786, 1.2659527000505477, 1.2492994999047369, 2.1655146998818964, 1.4159001999069005, 1.7657496999017894, 2.4657789999619126, 1.5822305001784116, 1.2824725999962538, 2.165441600140184, 1.3657406999263912, 3.8485912000760436, 1.5654160999692976, 1.3821840998716652, 1.2157628000713885, 1.0657171001657844, 2.1652349000796676, 1.0660935000050813, 1.5159701998345554, 1.3988426001742482, 1.415543100098148, 1.3161792000755668, 3.565277799963951, 1.3161983001045883, 1.065776500152424, 0.8987699998542666]",,347898,001,2022-11-06_18h50.48.193,Intentional Binding Task,2022.2.2,60.09781522125146,
0.7,400,unexp,3,4,40,2,201.0685322000645,202.06844790000468,202.06844790000468,202.06844790000468,space,0.3615276999771595,203.1515827902127,203.45164740015753,203.45164740015753,203.45164740015753,45,41,"[3.1604385001119226, 4.66554980003275, 2.1151699000038207, 1.3490667999722064, 3.249307099962607, 2.5823137001134455, 1.6659322001505643, 1.0663134001661092, 1.4994640999939293, 2.048883599927649, 1.315833600005135, 2.7825339001137763, 1.382040100172162, 1.3659227997995913, 1.415445800172165, 1.2659491000231355, 1.2492968998849392, 2.165511899860576, 1.4158975998871028, 1.7657471999991685, 2.465776300057769, 1.582227900158614, 1.2824691000860184, 2.1654391000047326, 1.3657381001394242, 3.848588699940592, 1.5654133998323232, 1.382181700086221, 1.2157598999328911, 1.0657147001475096, 2.1652312001679093, 1.0660908999852836, 1.515967199811712, 1.3988399000372738, 1.4155405000783503, 1.3161754999309778, 3.5652743000537157, 1.316194900078699, 1.0657739001326263, 0.8987674999516457, 1.7161491001024842]","[3.160443800035864, 4.665553899947554, 2.1151723999064416, 1.349069399992004, 3.2493096999824047, 2.582316300133243, 1.6659347000531852, 1.0663169000763446, 1.499466799898073, 2.0488861999474466, 1.3158364000264555, 2.782537200022489, 1.3820427001919597, 1.3659259998239577, 1.415448300074786, 1.2659527000505477, 1.2492994999047369, 2.1655146998818964, 1.4159001999069005, 1.7657496999017894, 2.4657789999619126, 1.5822305001784116, 1.2824725999962538, 2.165441600140184, 1.3657406999263912, 3.8485912000760436, 1.5654160999692976, 1.3821840998716652, 1.2157628000713885, 1.0657171001657844, 2.1652349000796676, 1.0660935000050813, 1.5159701998345554, 1.3988426001742482, 1.415543100098148, 1.3161792000755668, 3.565277799963951, 1.3161983001045883, 1.065776500152424, 0.8987699998542666, 1.716151700122282]",,347898,001,2022-11-06_18h50.48.193,Intentional Binding Task,2022.2.2,60.09781522125146,
0.7,1000,exp,3,5,41,11,205.16800120007247,206.1678211002145,206.1678211002145,206.1678211002145,space,0.480017599882558,207.3678502900526,207.66769830021076,207.66769830021076,207.66769830021076,456,42,"[3.1604385001119226, 4.66554980003275, 2.1151699000038207, 1.3490667999722064, 3.249307099962607, 2.5823137001134455, 1.6659322001505643, 1.0663134001661092, 1.4994640999939293, 2.048883599927649, 1.315833600005135, 2.7825339001137763, 1.382040100172162, 1.3659227997995913, 1.415445800172165, 1.2659491000231355, 1.2492968998849392, 2.165511899860576, 1.4158975998871028, 1.7657471999991685, 2.465776300057769, 1.582227900158614, 1.2824691000860184, 2.1654391000047326, 1.3657381001394242, 3.848588699940592, 1.5654133998323232, 1.382181700086221, 1.2157598999328911, 1.0657147001475096, 2.1652312001679093, 1.0660908999852836, 1.515967199811712, 1.3988399000372738, 1.4155405000783503, 1.3161754999309778, 3.5652743000537157, 1.316194900078699, 1.0657739001326263, 0.8987674999516457, 1.7161491001024842, 1.64890390005894]","[3.160443800035864, 4.665553899947554, 2.1151723999064416, 1.349069399992004, 3.2493096999824047, 2.582316300133243, 1.6659347000531852, 1.0663169000763446, 1.499466799898073, 2.0488861999474466, 1.3158364000264555, 2.782537200022489, 1.3820427001919597, 1.3659259998239577, 1.415448300074786, 1.2659527000505477, 1.2492994999047369, 2.1655146998818964, 1.4159001999069005, 1.7657496999017894, 2.4657789999619126, 1.5822305001784116, 1.2824725999962538, 2.165441600140184, 1.3657406999263912, 3.8485912000760436, 1.5654160999692976, 1.3821840998716652, 1.2157628000713885, 1.0657171001657844, 2.1652349000796676, 1.0660935000050813, 1.5159701998345554, 1.3988426001742482, 1.415543100098148, 1.3161792000755668, 3.565277799963951, 1.3161983001045883, 1.065776500152424, 0.8987699998542666, 1.716151700122282, 1.6489065000787377]",,347898,001,2022-11-06_18h50.48.193,Intentional Binding Task,2022.2.2,60.09781522125146,
0.4,400,unexp,3,6,42,1,209.3175191001501,210.31738150003366,210.31738150003366,210.31738150003366,space,1.1234453998040408,211.86712149009108,212.16713180020452,212.16713180020452,212.16713180020452,123,43,"[3.1604385001119226, 4.66554980003275, 2.1151699000038207, 1.3490667999722064, 3.249307099962607, 2.5823137001134455, 1.6659322001505643, 1.0663134001661092, 1.4994640999939293, 2.048883599927649, 1.315833600005135, 2.7825339001137763, 1.382040100172162, 1.3659227997995913, 1.415445800172165, 1.2659491000231355, 1.2492968998849392, 2.165511899860576, 1.4158975998871028, 1.7657471999991685, 2.465776300057769, 1.582227900158614, 1.2824691000860184, 2.1654391000047326, 1.3657381001394242, 3.848588699940592, 1.5654133998323232, 1.382181700086221, 1.2157598999328911, 1.0657147001475096, 2.1652312001679093, 1.0660908999852836, 1.515967199811712, 1.3988399000372738, 1.4155405000783503, 1.3161754999309778, 3.5652743000537157, 1.316194900078699, 1.0657739001326263, 0.8987674999516457, 1.7161491001024842, 1.64890390005894, 1.5991438999772072]","[3.160443800035864, 4.665553899947554, 2.1151723999064416, 1.349069399992004, 3.2493096999824047, 2.582316300133243, 1.6659347000531852, 1.0663169000763446, 1.499466799898073, 2.0488861999474466, 1.3158364000264555, 2.782537200022489, 1.3820427001919597, 1.3659259998239577, 1.415448300074786, 1.2659527000505477, 1.2492994999047369, 2.1655146998818964, 1.4159001999069005, 1.7657496999017894, 2.4657789999619126, 1.5822305001784116, 1.2824725999962538, 2.165441600140184, 1.3657406999263912, 3.8485912000760436, 1.5654160999692976, 1.3821840998716652, 1.2157628000713885, 1.0657171001657844, 2.1652349000796676, 1.0660935000050813, 1.5159701998345554, 1.3988426001742482, 1.415543100098148, 1.3161792000755668, 3.565277799963951, 1.3161983001045883, 1.065776500152424, 0.8987699998542666, 1.716151700122282, 1.6489065000787377, 1.5991464001126587]",,347898,001,2022-11-06_18h50.48.193,Intentional Binding Task,2022.2.2,60.09781522125146,
0.4,1000,exp,3,7,43,10,213.76682100002654,214.76680540014058,214.76680540014058,214.76680540014058,space,0.48788839974440634,215.68324529021046,215.98345100018196,215.98345100018196,215.98345100018196,"
555",44,"[3.1604385001119226, 4.66554980003275, 2.1151699000038207, 1.3490667999722064, 3.249307099962607, 2.5823137001134455, 1.6659322001505643, 1.0663134001661092, 1.4994640999939293, 2.048883599927649, 1.315833600005135, 2.7825339001137763, 1.382040100172162, 1.3659227997995913, 1.415445800172165, 1.2659491000231355, 1.2492968998849392, 2.165511899860576, 1.4158975998871028, 1.7657471999991685, 2.465776300057769, 1.582227900158614, 1.2824691000860184, 2.1654391000047326, 1.3657381001394242, 3.848588699940592, 1.5654133998323232, 1.382181700086221, 1.2157598999328911, 1.0657147001475096, 2.1652312001679093, 1.0660908999852836, 1.515967199811712, 1.3988399000372738, 1.4155405000783503, 1.3161754999309778, 3.5652743000537157, 1.316194900078699, 1.0657739001326263, 0.8987674999516457, 1.7161491001024842, 1.64890390005894, 1.5991438999772072, 1.7326952000148594]","[3.160443800035864, 4.665553899947554, 2.1151723999064416, 1.349069399992004, 3.2493096999824047, 2.582316300133243, 1.6659347000531852, 1.0663169000763446, 1.499466799898073, 2.0488861999474466, 1.3158364000264555, 2.782537200022489, 1.3820427001919597, 1.3659259998239577, 1.415448300074786, 1.2659527000505477, 1.2492994999047369, 2.1655146998818964, 1.4159001999069005, 1.7657496999017894, 2.4657789999619126, 1.5822305001784116, 1.2824725999962538, 2.165441600140184, 1.3657406999263912, 3.8485912000760436, 1.5654160999692976, 1.3821840998716652, 1.2157628000713885, 1.0657171001657844, 2.1652349000796676, 1.0660935000050813, 1.5159701998345554, 1.3988426001742482, 1.415543100098148, 1.3161792000755668, 3.565277799963951, 1.3161983001045883, 1.065776500152424, 0.8987699998542666, 1.716151700122282, 1.6489065000787377, 1.5991464001126587, 1.732697900151834]",,347898,001,2022-11-06_18h50.48.193,Intentional Binding Task,2022.2.2,60.09781522125146,
0.1,400,unexp,3,8,44,0,217.71640020003542,218.71612030011602,218.71612030011602,218.71612030011602,space,0.5337361998390406,219.36618549018166,219.66634570015594,219.66634570015594,219.66634570015594,11,45,"[3.1604385001119226, 4.66554980003275, 2.1151699000038207, 1.3490667999722064, 3.249307099962607, 2.5823137001134455, 1.6659322001505643, 1.0663134001661092, 1.4994640999939293, 2.048883599927649, 1.315833600005135, 2.7825339001137763, 1.382040100172162, 1.3659227997995913, 1.415445800172165, 1.2659491000231355, 1.2492968998849392, 2.165511899860576, 1.4158975998871028, 1.7657471999991685, 2.465776300057769, 1.582227900158614, 1.2824691000860184, 2.1654391000047326, 1.3657381001394242, 3.848588699940592, 1.5654133998323232, 1.382181700086221, 1.2157598999328911, 1.0657147001475096, 2.1652312001679093, 1.0660908999852836, 1.515967199811712, 1.3988399000372738, 1.4155405000783503, 1.3161754999309778, 3.5652743000537157, 1.316194900078699, 1.0657739001326263, 0.8987674999516457, 1.7161491001024842, 1.64890390005894, 1.5991438999772072, 1.7326952000148594, 1.6325691000092775]","[3.160443800035864, 4.665553899947554, 2.1151723999064416, 1.349069399992004, 3.2493096999824047, 2.582316300133243, 1.6659347000531852, 1.0663169000763446, 1.499466799898073, 2.0488861999474466, 1.3158364000264555, 2.782537200022489, 1.3820427001919597, 1.3659259998239577, 1.415448300074786, 1.2659527000505477, 1.2492994999047369, 2.1655146998818964, 1.4159001999069005, 1.7657496999017894, 2.4657789999619126, 1.5822305001784116, 1.2824725999962538, 2.165441600140184, 1.3657406999263912, 3.8485912000760436, 1.5654160999692976, 1.3821840998716652, 1.2157628000713885, 1.0657171001657844, 2.1652349000796676, 1.0660935000050813, 1.5159701998345554, 1.3988426001742482, 1.415543100098148, 1.3161792000755668, 3.565277799963951, 1.3161983001045883, 1.065776500152424, 0.8987699998542666, 1.716151700122282, 1.6489065000787377, 1.5991464001126587, 1.732697900151834, 1.632571600144729]",,347898,001,2022-11-06_18h50.48.193,Intentional Binding Task,2022.2.2,60.09781522125146,
0.1,1000,exp,3,9,45,9,221.29922930011526,222.29910950013436,222.29910950013436,222.29910950013436,space,0.41467149974778295,222.83237049020826,223.1323595000431,223.1323595000431,223.1323595000431,66,46,"[3.1604385001119226, 4.66554980003275, 2.1151699000038207, 1.3490667999722064, 3.249307099962607, 2.5823137001134455, 1.6659322001505643, 1.0663134001661092, 1.4994640999939293, 2.048883599927649, 1.315833600005135, 2.7825339001137763, 1.382040100172162, 1.3659227997995913, 1.415445800172165, 1.2659491000231355, 1.2492968998849392, 2.165511899860576, 1.4158975998871028, 1.7657471999991685, 2.465776300057769, 1.582227900158614, 1.2824691000860184, 2.1654391000047326, 1.3657381001394242, 3.848588699940592, 1.5654133998323232, 1.382181700086221, 1.2157598999328911, 1.0657147001475096, 2.1652312001679093, 1.0660908999852836, 1.515967199811712, 1.3988399000372738, 1.4155405000783503, 1.3161754999309778, 3.5652743000537157, 1.316194900078699, 1.0657739001326263, 0.8987674999516457, 1.7161491001024842, 1.64890390005894, 1.5991438999772072, 1.7326952000148594, 1.6325691000092775, 1.3159200998488814]","[3.160443800035864, 4.665553899947554, 2.1151723999064416, 1.349069399992004, 3.2493096999824047, 2.582316300133243, 1.6659347000531852, 1.0663169000763446, 1.499466799898073, 2.0488861999474466, 1.3158364000264555, 2.782537200022489, 1.3820427001919597, 1.3659259998239577, 1.415448300074786, 1.2659527000505477, 1.2492994999047369, 2.1655146998818964, 1.4159001999069005, 1.7657496999017894, 2.4657789999619126, 1.5822305001784116, 1.2824725999962538, 2.165441600140184, 1.3657406999263912, 3.8485912000760436, 1.5654160999692976, 1.3821840998716652, 1.2157628000713885, 1.0657171001657844, 2.1652349000796676, 1.0660935000050813, 1.5159701998345554, 1.3988426001742482, 1.415543100098148, 1.3161792000755668, 3.565277799963951, 1.3161983001045883, 1.065776500152424, 0.8987699998542666, 1.716151700122282, 1.6489065000787377, 1.5991464001126587, 1.732697900151834, 1.632571600144729, 1.315922899870202]",,347898,001,2022-11-06_18h50.48.193,Intentional Binding Task,2022.2.2,60.09781522125146,
0.7,1000,exp,3,10,46,8,224.4488687000703,225.44890020019375,225.44890020019375,225.44890020019375,space,0.7154260999523103,226.88188059013336,227.1820960000623,227.1820960000623,227.1820960000623,22,47,"[3.1604385001119226, 4.66554980003275, 2.1151699000038207, 1.3490667999722064, 3.249307099962607, 2.5823137001134455, 1.6659322001505643, 1.0663134001661092, 1.4994640999939293, 2.048883599927649, 1.315833600005135, 2.7825339001137763, 1.382040100172162, 1.3659227997995913, 1.415445800172165, 1.2659491000231355, 1.2492968998849392, 2.165511899860576, 1.4158975998871028, 1.7657471999991685, 2.465776300057769, 1.582227900158614, 1.2824691000860184, 2.1654391000047326, 1.3657381001394242, 3.848588699940592, 1.5654133998323232, 1.382181700086221, 1.2157598999328911, 1.0657147001475096, 2.1652312001679093, 1.0660908999852836, 1.515967199811712, 1.3988399000372738, 1.4155405000783503, 1.3161754999309778, 3.5652743000537157, 1.316194900078699, 1.0657739001326263, 0.8987674999516457, 1.7161491001024842, 1.64890390005894, 1.5991438999772072, 1.7326952000148594, 1.6325691000092775, 1.3159200998488814, 1.632684800075367]","[3.160443800035864, 4.665553899947554, 2.1151723999064416, 1.349069399992004, 3.2493096999824047, 2.582316300133243, 1.6659347000531852, 1.0663169000763446, 1.499466799898073, 2.0488861999474466, 1.3158364000264555, 2.782537200022489, 1.3820427001919597, 1.3659259998239577, 1.415448300074786, 1.2659527000505477, 1.2492994999047369, 2.1655146998818964, 1.4159001999069005, 1.7657496999017894, 2.4657789999619126, 1.5822305001784116, 1.2824725999962538, 2.165441600140184, 1.3657406999263912, 3.8485912000760436, 1.5654160999692976, 1.3821840998716652, 1.2157628000713885, 1.0657171001657844, 2.1652349000796676, 1.0660935000050813, 1.5159701998345554, 1.3988426001742482, 1.415543100098148, 1.3161792000755668, 3.565277799963951, 1.3161983001045883, 1.065776500152424, 0.8987699998542666, 1.716151700122282, 1.6489065000787377, 1.5991464001126587, 1.732697900151834, 1.632571600144729, 1.315922899870202, 1.6326885998714715]",,347898,001,2022-11-06_18h50.48.193,Intentional Binding Task,2022.2.2,60.09781522125146,
0.7,1000,exp,3,11,47,5,228.8148425000254,229.81484130001627,229.81484130001627,229.81484130001627,space,0.4778237999416888,231.01446359013207,231.31461830018088,231.31461830018088,231.31461830018088,33,48,"[3.1604385001119226, 4.66554980003275, 2.1151699000038207, 1.3490667999722064, 3.249307099962607, 2.5823137001134455, 1.6659322001505643, 1.0663134001661092, 1.4994640999939293, 2.048883599927649, 1.315833600005135, 2.7825339001137763, 1.382040100172162, 1.3659227997995913, 1.415445800172165, 1.2659491000231355, 1.2492968998849392, 2.165511899860576, 1.4158975998871028, 1.7657471999991685, 2.465776300057769, 1.582227900158614, 1.2824691000860184, 2.1654391000047326, 1.3657381001394242, 3.848588699940592, 1.5654133998323232, 1.382181700086221, 1.2157598999328911, 1.0657147001475096, 2.1652312001679093, 1.0660908999852836, 1.515967199811712, 1.3988399000372738, 1.4155405000783503, 1.3161754999309778, 3.5652743000537157, 1.316194900078699, 1.0657739001326263, 0.8987674999516457, 1.7161491001024842, 1.64890390005894, 1.5991438999772072, 1.7326952000148594, 1.6325691000092775, 1.3159200998488814, 1.632684800075367, 1.3326653998810798]","[3.160443800035864, 4.665553899947554, 2.1151723999064416, 1.349069399992004, 3.2493096999824047, 2.582316300133243, 1.6659347000531852, 1.0663169000763446, 1.499466799898073, 2.0488861999474466, 1.3158364000264555, 2.782537200022489, 1.3820427001919597, 1.3659259998239577, 1.415448300074786, 1.2659527000505477, 1.2492994999047369, 2.1655146998818964, 1.4159001999069005, 1.7657496999017894, 2.4657789999619126, 1.5822305001784116, 1.2824725999962538, 2.165441600140184, 1.3657406999263912, 3.8485912000760436, 1.5654160999692976, 1.3821840998716652, 1.2157628000713885, 1.0657171001657844, 2.1652349000796676, 1.0660935000050813, 1.5159701998345554, 1.3988426001742482, 1.415543100098148, 1.3161792000755668, 3.565277799963951, 1.3161983001045883, 1.065776500152424, 0.8987699998542666, 1.716151700122282, 1.6489065000787377, 1.5991464001126587, 1.732697900151834, 1.632571600144729, 1.315922899870202, 1.6326885998714715, 1.3326681000180542]",231.31461830018088,347898,001,2022-11-06_18h50.48.193,Intentional Binding Task,2022.2.2,60.09781522125146,
0.4,1000,exp,4,0,48,10,232.64785449998453,233.64772280002944,233.64772280002944,233.64772280002944,space,0.8640114997979254,234.93068499015644,235.2307697001379,235.2307697001379,235.2307697001379,77,49,"[3.1604385001119226, 4.66554980003275, 2.1151699000038207, 1.3490667999722064, 3.249307099962607, 2.5823137001134455, 1.6659322001505643, 1.0663134001661092, 1.4994640999939293, 2.048883599927649, 1.315833600005135, 2.7825339001137763, 1.382040100172162, 1.3659227997995913, 1.415445800172165, 1.2659491000231355, 1.2492968998849392, 2.165511899860576, 1.4158975998871028, 1.7657471999991685, 2.465776300057769, 1.582227900158614, 1.2824691000860184, 2.1654391000047326, 1.3657381001394242, 3.848588699940592, 1.5654133998323232, 1.382181700086221, 1.2157598999328911, 1.0657147001475096, 2.1652312001679093, 1.0660908999852836, 1.515967199811712, 1.3988399000372738, 1.4155405000783503, 1.3161754999309778, 3.5652743000537157, 1.316194900078699, 1.0657739001326263, 0.8987674999516457, 1.7161491001024842, 1.64890390005894, 1.5991438999772072, 1.7326952000148594, 1.6325691000092775, 1.3159200998488814, 1.632684800075367, 1.3326653998810798, 1.448850000044331]","[3.160443800035864, 4.665553899947554, 2.1151723999064416, 1.349069399992004, 3.2493096999824047, 2.582316300133243, 1.6659347000531852, 1.0663169000763446, 1.499466799898073, 2.0488861999474466, 1.3158364000264555, 2.782537200022489, 1.3820427001919597, 1.3659259998239577, 1.415448300074786, 1.2659527000505477, 1.2492994999047369, 2.1655146998818964, 1.4159001999069005, 1.7657496999017894, 2.4657789999619126, 1.5822305001784116, 1.2824725999962538, 2.165441600140184, 1.3657406999263912, 3.8485912000760436, 1.5654160999692976, 1.3821840998716652, 1.2157628000713885, 1.0657171001657844, 2.1652349000796676, 1.0660935000050813, 1.5159701998345554, 1.3988426001742482, 1.415543100098148, 1.3161792000755668, 3.565277799963951, 1.3161983001045883, 1.065776500152424, 0.8987699998542666, 1.716151700122282, 1.6489065000787377, 1.5991464001126587, 1.732697900151834, 1.632571600144729, 1.315922899870202, 1.6326885998714715, 1.3326681000180542, 1.4488524999469519]",,347898,001,2022-11-06_18h50.48.193,Intentional Binding Task,2022.2.2,60.09781522125146,
0.1,1000,exp,4,1,49,3,236.68057620013133,237.68042580015026,237.68042580015026,237.68042580015026,space,1.2801764998584986,239.08036529007367,239.3803453000728,239.3803453000728,239.3803453000728,56,50,"[3.1604385001119226, 4.66554980003275, 2.1151699000038207, 1.3490667999722064, 3.249307099962607, 2.5823137001134455, 1.6659322001505643, 1.0663134001661092, 1.4994640999939293, 2.048883599927649, 1.315833600005135, 2.7825339001137763, 1.382040100172162, 1.3659227997995913, 1.415445800172165, 1.2659491000231355, 1.2492968998849392, 2.165511899860576, 1.4158975998871028, 1.7657471999991685, 2.465776300057769, 1.582227900158614, 1.2824691000860184, 2.1654391000047326, 1.3657381001394242, 3.848588699940592, 1.5654133998323232, 1.382181700086221, 1.2157598999328911, 1.0657147001475096, 2.1652312001679093, 1.0660908999852836, 1.515967199811712, 1.3988399000372738, 1.4155405000783503, 1.3161754999309778, 3.5652743000537157, 1.316194900078699, 1.0657739001326263, 0.8987674999516457, 1.7161491001024842, 1.64890390005894, 1.5991438999772072, 1.7326952000148594, 1.6325691000092775, 1.3159200998488814, 1.632684800075367, 1.3326653998810798, 1.448850000044331, 1.4160747001878917]","[3.160443800035864, 4.665553899947554, 2.1151723999064416, 1.349069399992004, 3.2493096999824047, 2.582316300133243, 1.6659347000531852, 1.0663169000763446, 1.499466799898073, 2.0488861999474466, 1.3158364000264555, 2.782537200022489, 1.3820427001919597, 1.3659259998239577, 1.415448300074786, 1.2659527000505477, 1.2492994999047369, 2.1655146998818964, 1.4159001999069005, 1.7657496999017894, 2.4657789999619126, 1.5822305001784116, 1.2824725999962538, 2.165441600140184, 1.3657406999263912, 3.8485912000760436, 1.5654160999692976, 1.3821840998716652, 1.2157628000713885, 1.0657171001657844, 2.1652349000796676, 1.0660935000050813, 1.5159701998345554, 1.3988426001742482, 1.415543100098148, 1.3161792000755668, 3.565277799963951, 1.3161983001045883, 1.065776500152424, 0.8987699998542666, 1.716151700122282, 1.6489065000787377, 1.5991464001126587, 1.732697900151834, 1.632571600144729, 1.315922899870202, 1.6326885998714715, 1.3326681000180542, 1.4488524999469519, 1.4160778999794275]",239.3803453000728,347898,001,2022-11-06_18h50.48.193,Intentional Binding Task,2022.2.2,60.09781522125146,
0.7,1000,exp,4,2,50,8,240.7967581001576,241.7965791001916,241.7965791001916,241.7965791001916,space,1.1014807999599725,243.62982659009285,243.92960820021108,243.92960820021108,243.92960820021108,2,51,"[3.1604385001119226, 4.66554980003275, 2.1151699000038207, 1.3490667999722064, 3.249307099962607, 2.5823137001134455, 1.6659322001505643, 1.0663134001661092, 1.4994640999939293, 2.048883599927649, 1.315833600005135, 2.7825339001137763, 1.382040100172162, 1.3659227997995913, 1.415445800172165, 1.2659491000231355, 1.2492968998849392, 2.165511899860576, 1.4158975998871028, 1.7657471999991685, 2.465776300057769, 1.582227900158614, 1.2824691000860184, 2.1654391000047326, 1.3657381001394242, 3.848588699940592, 1.5654133998323232, 1.382181700086221, 1.2157598999328911, 1.0657147001475096, 2.1652312001679093, 1.0660908999852836, 1.515967199811712, 1.3988399000372738, 1.4155405000783503, 1.3161754999309778, 3.5652743000537157, 1.316194900078699, 1.0657739001326263, 0.8987674999516457, 1.7161491001024842, 1.64890390005894, 1.5991438999772072, 1.7326952000148594, 1.6325691000092775, 1.3159200998488814, 1.632684800075367, 1.3326653998810798, 1.448850000044331, 1.4160747001878917, 1.0489437999203801]","[3.160443800035864, 4.665553899947554, 2.1151723999064416, 1.349069399992004, 3.2493096999824047, 2.582316300133243, 1.6659347000531852, 1.0663169000763446, 1.499466799898073, 2.0488861999474466, 1.3158364000264555, 2.782537200022489, 1.3820427001919597, 1.3659259998239577, 1.415448300074786, 1.2659527000505477, 1.2492994999047369, 2.1655146998818964, 1.4159001999069005, 1.7657496999017894, 2.4657789999619126, 1.5822305001784116, 1.2824725999962538, 2.165441600140184, 1.3657406999263912, 3.8485912000760436, 1.5654160999692976, 1.3821840998716652, 1.2157628000713885, 1.0657171001657844, 2.1652349000796676, 1.0660935000050813, 1.5159701998345554, 1.3988426001742482, 1.415543100098148, 1.3161792000755668, 3.565277799963951, 1.3161983001045883, 1.065776500152424, 0.8987699998542666, 1.716151700122282, 1.6489065000787377, 1.5991464001126587, 1.732697900151834, 1.632571600144729, 1.315922899870202, 1.6326885998714715, 1.3326681000180542, 1.4488524999469519, 1.4160778999794275, 1.0489463999401778]",243.92960820021108,347898,001,2022-11-06_18h50.48.193,Intentional Binding Task,2022.2.2,60.09781522125146,
0.1,1000,exp,4,3,51,6,244.9795586001128,245.97943890001625,245.97943890001625,245.97943890001625,space,0.473576599964872,246.5625808901619,246.86256560008042,246.86256560008042,246.86256560008042,78,52,"[3.1604385001119226, 4.66554980003275, 2.1151699000038207, 1.3490667999722064, 3.249307099962607, 2.5823137001134455, 1.6659322001505643, 1.0663134001661092, 1.4994640999939293, 2.048883599927649, 1.315833600005135, 2.7825339001137763, 1.382040100172162, 1.3659227997995913, 1.415445800172165, 1.2659491000231355, 1.2492968998849392, 2.165511899860576, 1.4158975998871028, 1.7657471999991685, 2.465776300057769, 1.582227900158614, 1.2824691000860184, 2.1654391000047326, 1.3657381001394242, 3.848588699940592, 1.5654133998323232, 1.382181700086221, 1.2157598999328911, 1.0657147001475096, 2.1652312001679093, 1.0660908999852836, 1.515967199811712, 1.3988399000372738, 1.4155405000783503, 1.3161754999309778, 3.5652743000537157, 1.316194900078699, 1.0657739001326263, 0.8987674999516457, 1.7161491001024842, 1.64890390005894, 1.5991438999772072, 1.7326952000148594, 1.6325691000092775, 1.3159200998488814, 1.632684800075367, 1.3326653998810798, 1.448850000044331, 1.4160747001878917, 1.0489437999203801, 1.3657643001060933]","[3.160443800035864, 4.665553899947554, 2.1151723999064416, 1.349069399992004, 3.2493096999824047, 2.582316300133243, 1.6659347000531852, 1.0663169000763446, 1.499466799898073, 2.0488861999474466, 1.3158364000264555, 2.782537200022489, 1.3820427001919597, 1.3659259998239577, 1.415448300074786, 1.2659527000505477, 1.2492994999047369, 2.1655146998818964, 1.4159001999069005, 1.7657496999017894, 2.4657789999619126, 1.5822305001784116, 1.2824725999962538, 2.165441600140184, 1.3657406999263912, 3.8485912000760436, 1.5654160999692976, 1.3821840998716652, 1.2157628000713885, 1.0657171001657844, 2.1652349000796676, 1.0660935000050813, 1.5159701998345554, 1.3988426001742482, 1.415543100098148, 1.3161792000755668, 3.565277799963951, 1.3161983001045883, 1.065776500152424, 0.8987699998542666, 1.716151700122282, 1.6489065000787377, 1.5991464001126587, 1.732697900151834, 1.632571600144729, 1.315922899870202, 1.6326885998714715, 1.3326681000180542, 1.4488524999469519, 1.4160778999794275, 1.0489463999401778, 1.3657680000178516]",,347898,001,2022-11-06_18h50.48.193,Intentional Binding Task,2022.2.2,60.09781522125146,
0.1,400,unexp,4,4,52,0,248.22891250019893,249.2290054000914,249.2290054000914,249.2290054000914,space,0.4828732998576015,249.82892889007925,250.1288235001266,250.1288235001266,250.1288235001266,6,53,"[3.1604385001119226, 4.66554980003275, 2.1151699000038207, 1.3490667999722064, 3.249307099962607, 2.5823137001134455, 1.6659322001505643, 1.0663134001661092, 1.4994640999939293, 2.048883599927649, 1.315833600005135, 2.7825339001137763, 1.382040100172162, 1.3659227997995913, 1.415445800172165, 1.2659491000231355, 1.2492968998849392, 2.165511899860576, 1.4158975998871028, 1.7657471999991685, 2.465776300057769, 1.582227900158614, 1.2824691000860184, 2.1654391000047326, 1.3657381001394242, 3.848588699940592, 1.5654133998323232, 1.382181700086221, 1.2157598999328911, 1.0657147001475096, 2.1652312001679093, 1.0660908999852836, 1.515967199811712, 1.3988399000372738, 1.4155405000783503, 1.3161754999309778, 3.5652743000537157, 1.316194900078699, 1.0657739001326263, 0.8987674999516457, 1.7161491001024842, 1.64890390005894, 1.5991438999772072, 1.7326952000148594, 1.6325691000092775, 1.3159200998488814, 1.632684800075367, 1.3326653998810798, 1.448850000044331, 1.4160747001878917, 1.0489437999203801, 1.3657643001060933, 2.398985199863091]","[3.160443800035864, 4.665553899947554, 2.1151723999064416, 1.349069399992004, 3.2493096999824047, 2.582316300133243, 1.6659347000531852, 1.0663169000763446, 1.499466799898073, 2.0488861999474466, 1.3158364000264555, 2.782537200022489, 1.3820427001919597, 1.3659259998239577, 1.415448300074786, 1.2659527000505477, 1.2492994999047369, 2.1655146998818964, 1.4159001999069005, 1.7657496999017894, 2.4657789999619126, 1.5822305001784116, 1.2824725999962538, 2.165441600140184, 1.3657406999263912, 3.8485912000760436, 1.5654160999692976, 1.3821840998716652, 1.2157628000713885, 1.0657171001657844, 2.1652349000796676, 1.0660935000050813, 1.5159701998345554, 1.3988426001742482, 1.415543100098148, 1.3161792000755668, 3.565277799963951, 1.3161983001045883, 1.065776500152424, 0.8987699998542666, 1.716151700122282, 1.6489065000787377, 1.5991464001126587, 1.732697900151834, 1.632571600144729, 1.315922899870202, 1.6326885998714715, 1.3326681000180542, 1.4488524999469519, 1.4160778999794275, 1.0489463999401778, 1.3657680000178516, 2.39898890000768]",,347898,001,2022-11-06_18h50.48.193,Intentional Binding Task,2022.2.2,60.09781522125146,
0.7,1000,exp,4,5,53,11,252.52857880014926,253.52848690003157,253.52848690003157,253.52848690003157,space,0.3150413997936994,254.56151888999156,254.8617160001304,254.8617160001304,254.8617160001304,6,54,"[3.1604385001119226, 4.66554980003275, 2.1151699000038207, 1.3490667999722064, 3.249307099962607, 2.5823137001134455, 1.6659322001505643, 1.0663134001661092, 1.4994640999939293, 2.048883599927649, 1.315833600005135, 2.7825339001137763, 1.382040100172162, 1.3659227997995913, 1.415445800172165, 1.2659491000231355, 1.2492968998849392, 2.165511899860576, 1.4158975998871028, 1.7657471999991685, 2.465776300057769, 1.582227900158614, 1.2824691000860184, 2.1654391000047326, 1.3657381001394242, 3.848588699940592, 1.5654133998323232, 1.382181700086221, 1.2157598999328911, 1.0657147001475096, 2.1652312001679093, 1.0660908999852836, 1.515967199811712, 1.3988399000372738, 1.4155405000783503, 1.3161754999309778, 3.5652743000537157, 1.316194900078699, 1.0657739001326263, 0.8987674999516457, 1.7161491001024842, 1.64890390005894, 1.5991438999772072, 1.7326952000148594, 1.6325691000092775, 1.3159200998488814, 1.632684800075367, 1.3326653998810798, 1.448850000044331, 1.4160747001878917, 1.0489437999203801, 1.3657643001060933, 2.398985199863091, 1.1159991999156773]","[3.160443800035864, 4.665553899947554, 2.1151723999064416, 1.349069399992004, 3.2493096999824047, 2.582316300133243, 1.6659347000531852, 1.0663169000763446, 1.499466799898073, 2.0488861999474466, 1.3158364000264555, 2.782537200022489, 1.3820427001919597, 1.3659259998239577, 1.415448300074786, 1.2659527000505477, 1.2492994999047369, 2.1655146998818964, 1.4159001999069005, 1.7657496999017894, 2.4657789999619126, 1.5822305001784116, 1.2824725999962538, 2.165441600140184, 1.3657406999263912, 3.8485912000760436, 1.5654160999692976, 1.3821840998716652, 1.2157628000713885, 1.0657171001657844, 2.1652349000796676, 1.0660935000050813, 1.5159701998345554, 1.3988426001742482, 1.415543100098148, 1.3161792000755668, 3.565277799963951, 1.3161983001045883, 1.065776500152424, 0.8987699998542666, 1.716151700122282, 1.6489065000787377, 1.5991464001126587, 1.732697900151834, 1.632571600144729, 1.315922899870202, 1.6326885998714715, 1.3326681000180542, 1.4488524999469519, 1.4160778999794275, 1.0489463999401778, 1.3657680000178516, 2.39898890000768, 1.116001799935475]",254.8617160001304,347898,001,2022-11-06_18h50.48.193,Intentional Binding Task,2022.2.2,60.09781522125146,
0.4,1000,exp,4,6,54,4,255.97811860009097,256.9779632000718,256.9779632000718,256.9779632000718,space,0.3152320000808686,257.71118599004114,258.0112614000682,258.0112614000682,258.0112614000682,456,55,"[3.1604385001119226, 4.66554980003275, 2.1151699000038207, 1.3490667999722064, 3.249307099962607, 2.5823137001134455, 1.6659322001505643, 1.0663134001661092, 1.4994640999939293, 2.048883599927649, 1.315833600005135, 2.7825339001137763, 1.382040100172162, 1.3659227997995913, 1.415445800172165, 1.2659491000231355, 1.2492968998849392, 2.165511899860576, 1.4158975998871028, 1.7657471999991685, 2.465776300057769, 1.582227900158614, 1.2824691000860184, 2.1654391000047326, 1.3657381001394242, 3.848588699940592, 1.5654133998323232, 1.382181700086221, 1.2157598999328911, 1.0657147001475096, 2.1652312001679093, 1.0660908999852836, 1.515967199811712, 1.3988399000372738, 1.4155405000783503, 1.3161754999309778, 3.5652743000537157, 1.316194900078699, 1.0657739001326263, 0.8987674999516457, 1.7161491001024842, 1.64890390005894, 1.5991438999772072, 1.7326952000148594, 1.6325691000092775, 1.3159200998488814, 1.632684800075367, 1.3326653998810798, 1.448850000044331, 1.4160747001878917, 1.0489437999203801, 1.3657643001060933, 2.398985199863091, 1.1159991999156773, 1.899035600014031]","[3.160443800035864, 4.665553899947554, 2.1151723999064416, 1.349069399992004, 3.2493096999824047, 2.582316300133243, 1.6659347000531852, 1.0663169000763446, 1.499466799898073, 2.0488861999474466, 1.3158364000264555, 2.782537200022489, 1.3820427001919597, 1.3659259998239577, 1.415448300074786, 1.2659527000505477, 1.2492994999047369, 2.1655146998818964, 1.4159001999069005, 1.7657496999017894, 2.4657789999619126, 1.5822305001784116, 1.2824725999962538, 2.165441600140184, 1.3657406999263912, 3.8485912000760436, 1.5654160999692976, 1.3821840998716652, 1.2157628000713885, 1.0657171001657844, 2.1652349000796676, 1.0660935000050813, 1.5159701998345554, 1.3988426001742482, 1.415543100098148, 1.3161792000755668, 3.565277799963951, 1.3161983001045883, 1.065776500152424, 0.8987699998542666, 1.716151700122282, 1.6489065000787377, 1.5991464001126587, 1.732697900151834, 1.632571600144729, 1.315922899870202, 1.6326885998714715, 1.3326681000180542, 1.4488524999469519, 1.4160778999794275, 1.0489463999401778, 1.3657680000178516, 2.39898890000768, 1.116001799935475, 1.8990380999166518]",258.0112614000682,347898,001,2022-11-06_18h50.48.193,Intentional Binding Task,2022.2.2,60.09781522125146,
0.4,1000,exp,4,7,55,7,259.9110241001472,260.9109045001678,260.9109045001678,260.9109045001678,space,1.4000048998277634,262.7272806900088,263.0272786000278,263.0272786000278,263.0272786000278,89,56,"[3.1604385001119226, 4.66554980003275, 2.1151699000038207, 1.3490667999722064, 3.249307099962607, 2.5823137001134455, 1.6659322001505643, 1.0663134001661092, 1.4994640999939293, 2.048883599927649, 1.315833600005135, 2.7825339001137763, 1.382040100172162, 1.3659227997995913, 1.415445800172165, 1.2659491000231355, 1.2492968998849392, 2.165511899860576, 1.4158975998871028, 1.7657471999991685, 2.465776300057769, 1.582227900158614, 1.2824691000860184, 2.1654391000047326, 1.3657381001394242, 3.848588699940592, 1.5654133998323232, 1.382181700086221, 1.2157598999328911, 1.0657147001475096, 2.1652312001679093, 1.0660908999852836, 1.515967199811712, 1.3988399000372738, 1.4155405000783503, 1.3161754999309778, 3.5652743000537157, 1.316194900078699, 1.0657739001326263, 0.8987674999516457, 1.7161491001024842, 1.64890390005894, 1.5991438999772072, 1.7326952000148594, 1.6325691000092775, 1.3159200998488814, 1.632684800075367, 1.3326653998810798, 1.448850000044331, 1.4160747001878917, 1.0489437999203801, 1.3657643001060933, 2.398985199863091, 1.1159991999156773, 1.899035600014031, 4.01546399993822]","[3.160443800035864, 4.665553899947554, 2.1151723999064416, 1.349069399992004, 3.2493096999824047, 2.582316300133243, 1.6659347000531852, 1.0663169000763446, 1.499466799898073, 2.0488861999474466, 1.3158364000264555, 2.782537200022489, 1.3820427001919597, 1.3659259998239577, 1.415448300074786, 1.2659527000505477, 1.2492994999047369, 2.1655146998818964, 1.4159001999069005, 1.7657496999017894, 2.4657789999619126, 1.5822305001784116, 1.2824725999962538, 2.165441600140184, 1.3657406999263912, 3.8485912000760436, 1.5654160999692976, 1.3821840998716652, 1.2157628000713885, 1.0657171001657844, 2.1652349000796676, 1.0660935000050813, 1.5159701998345554, 1.3988426001742482, 1.415543100098148, 1.3161792000755668, 3.565277799963951, 1.3161983001045883, 1.065776500152424, 0.8987699998542666, 1.716151700122282, 1.6489065000787377, 1.5991464001126587, 1.732697900151834, 1.632571600144729, 1.315922899870202, 1.6326885998714715, 1.3326681000180542, 1.4488524999469519, 1.4160778999794275, 1.0489463999401778, 1.3657680000178516, 2.39898890000768, 1.116001799935475, 1.8990380999166518, 4.0154665999580175]",263.0272786000278,347898,001,2022-11-06_18h50.48.193,Intentional Binding Task,2022.2.2,60.09781522125146,
0.1,1000,exp,4,8,56,9,267.04348530014977,268.0434073000215,268.0434073000215,268.0434073000215,space,0.635024799965322,268.80975789008664,269.1098677001428,269.1098677001428,269.1098677001428,564,57,"[3.1604385001119226, 4.66554980003275, 2.1151699000038207, 1.3490667999722064, 3.249307099962607, 2.5823137001134455, 1.6659322001505643, 1.0663134001661092, 1.4994640999939293, 2.048883599927649, 1.315833600005135, 2.7825339001137763, 1.382040100172162, 1.3659227997995913, 1.415445800172165, 1.2659491000231355, 1.2492968998849392, 2.165511899860576, 1.4158975998871028, 1.7657471999991685, 2.465776300057769, 1.582227900158614, 1.2824691000860184, 2.1654391000047326, 1.3657381001394242, 3.848588699940592, 1.5654133998323232, 1.382181700086221, 1.2157598999328911, 1.0657147001475096, 2.1652312001679093, 1.0660908999852836, 1.515967199811712, 1.3988399000372738, 1.4155405000783503, 1.3161754999309778, 3.5652743000537157, 1.316194900078699, 1.0657739001326263, 0.8987674999516457, 1.7161491001024842, 1.64890390005894, 1.5991438999772072, 1.7326952000148594, 1.6325691000092775, 1.3159200998488814, 1.632684800075367, 1.3326653998810798, 1.448850000044331, 1.4160747001878917, 1.0489437999203801, 1.3657643001060933, 2.398985199863091, 1.1159991999156773, 1.899035600014031, 4.01546399993822, 3.4150455999188125]","[3.160443800035864, 4.665553899947554, 2.1151723999064416, 1.349069399992004, 3.2493096999824047, 2.582316300133243, 1.6659347000531852, 1.0663169000763446, 1.499466799898073, 2.0488861999474466, 1.3158364000264555, 2.782537200022489, 1.3820427001919597, 1.3659259998239577, 1.415448300074786, 1.2659527000505477, 1.2492994999047369, 2.1655146998818964, 1.4159001999069005, 1.7657496999017894, 2.4657789999619126, 1.5822305001784116, 1.2824725999962538, 2.165441600140184, 1.3657406999263912, 3.8485912000760436, 1.5654160999692976, 1.3821840998716652, 1.2157628000713885, 1.0657171001657844, 2.1652349000796676, 1.0660935000050813, 1.5159701998345554, 1.3988426001742482, 1.415543100098148, 1.3161792000755668, 3.565277799963951, 1.3161983001045883, 1.065776500152424, 0.8987699998542666, 1.716151700122282, 1.6489065000787377, 1.5991464001126587, 1.732697900151834, 1.632571600144729, 1.315922899870202, 1.6326885998714715, 1.3326681000180542, 1.4488524999469519, 1.4160778999794275, 1.0489463999401778, 1.3657680000178516, 2.39898890000768, 1.116001799935475, 1.8990380999166518, 4.0154665999580175, 3.4150480998214334]",269.1098677001428,347898,001,2022-11-06_18h50.48.193,Intentional Binding Task,2022.2.2,60.09781522125146,
0.7,400,unexp,4,9,57,2,272.52593230013736,273.5259351001587,273.5259351001587,273.5259351001587,space,0.5314989998005331,274.7756306900643,275.0756418001838,275.0756418001838,275.0756418001838,235,58,"[3.1604385001119226, 4.66554980003275, 2.1151699000038207, 1.3490667999722064, 3.249307099962607, 2.5823137001134455, 1.6659322001505643, 1.0663134001661092, 1.4994640999939293, 2.048883599927649, 1.315833600005135, 2.7825339001137763, 1.382040100172162, 1.3659227997995913, 1.415445800172165, 1.2659491000231355, 1.2492968998849392, 2.165511899860576, 1.4158975998871028, 1.7657471999991685, 2.465776300057769, 1.582227900158614, 1.2824691000860184, 2.1654391000047326, 1.3657381001394242, 3.848588699940592, 1.5654133998323232, 1.382181700086221, 1.2157598999328911, 1.0657147001475096, 2.1652312001679093, 1.0660908999852836, 1.515967199811712, 1.3988399000372738, 1.4155405000783503, 1.3161754999309778, 3.5652743000537157, 1.316194900078699, 1.0657739001326263, 0.8987674999516457, 1.7161491001024842, 1.64890390005894, 1.5991438999772072, 1.7326952000148594, 1.6325691000092775, 1.3159200998488814, 1.632684800075367, 1.3326653998810798, 1.448850000044331, 1.4160747001878917, 1.0489437999203801, 1.3657643001060933, 2.398985199863091, 1.1159991999156773, 1.899035600014031, 4.01546399993822, 3.4150455999188125, 1.499214799841866]","[3.160443800035864, 4.665553899947554, 2.1151723999064416, 1.349069399992004, 3.2493096999824047, 2.582316300133243, 1.6659347000531852, 1.0663169000763446, 1.499466799898073, 2.0488861999474466, 1.3158364000264555, 2.782537200022489, 1.3820427001919597, 1.3659259998239577, 1.415448300074786, 1.2659527000505477, 1.2492994999047369, 2.1655146998818964, 1.4159001999069005, 1.7657496999017894, 2.4657789999619126, 1.5822305001784116, 1.2824725999962538, 2.165441600140184, 1.3657406999263912, 3.8485912000760436, 1.5654160999692976, 1.3821840998716652, 1.2157628000713885, 1.0657171001657844, 2.1652349000796676, 1.0660935000050813, 1.5159701998345554, 1.3988426001742482, 1.415543100098148, 1.3161792000755668, 3.565277799963951, 1.3161983001045883, 1.065776500152424, 0.8987699998542666, 1.716151700122282, 1.6489065000787377, 1.5991464001126587, 1.732697900151834, 1.632571600144729, 1.315922899870202, 1.6326885998714715, 1.3326681000180542, 1.4488524999469519, 1.4160778999794275, 1.0489463999401778, 1.3657680000178516, 2.39898890000768, 1.116001799935475, 1.8990380999166518, 4.0154665999580175, 3.4150480998214334, 1.4992173998616636]",,347898,001,2022-11-06_18h50.48.193,Intentional Binding Task,2022.2.2,60.09781522125146,
0.4,400,unexp,4,10,58,1,276.57541600009426,277.57548770005815,277.57548770005815,277.57548770005815,space,0.7845448998268694,278.79162459019574,279.0917700000573,279.0917700000573,279.0917700000573,456,59,"[3.1604385001119226, 4.66554980003275, 2.1151699000038207, 1.3490667999722064, 3.249307099962607, 2.5823137001134455, 1.6659322001505643, 1.0663134001661092, 1.4994640999939293, 2.048883599927649, 1.315833600005135, 2.7825339001137763, 1.382040100172162, 1.3659227997995913, 1.415445800172165, 1.2659491000231355, 1.2492968998849392, 2.165511899860576, 1.4158975998871028, 1.7657471999991685, 2.465776300057769, 1.582227900158614, 1.2824691000860184, 2.1654391000047326, 1.3657381001394242, 3.848588699940592, 1.5654133998323232, 1.382181700086221, 1.2157598999328911, 1.0657147001475096, 2.1652312001679093, 1.0660908999852836, 1.515967199811712, 1.3988399000372738, 1.4155405000783503, 1.3161754999309778, 3.5652743000537157, 1.316194900078699, 1.0657739001326263, 0.8987674999516457, 1.7161491001024842, 1.64890390005894, 1.5991438999772072, 1.7326952000148594, 1.6325691000092775, 1.3159200998488814, 1.632684800075367, 1.3326653998810798, 1.448850000044331, 1.4160747001878917, 1.0489437999203801, 1.3657643001060933, 2.398985199863091, 1.1159991999156773, 1.899035600014031, 4.01546399993822, 3.4150455999188125, 1.499214799841866, 3.182451499858871]","[3.160443800035864, 4.665553899947554, 2.1151723999064416, 1.349069399992004, 3.2493096999824047, 2.582316300133243, 1.6659347000531852, 1.0663169000763446, 1.499466799898073, 2.0488861999474466, 1.3158364000264555, 2.782537200022489, 1.3820427001919597, 1.3659259998239577, 1.415448300074786, 1.2659527000505477, 1.2492994999047369, 2.1655146998818964, 1.4159001999069005, 1.7657496999017894, 2.4657789999619126, 1.5822305001784116, 1.2824725999962538, 2.165441600140184, 1.3657406999263912, 3.8485912000760436, 1.5654160999692976, 1.3821840998716652, 1.2157628000713885, 1.0657171001657844, 2.1652349000796676, 1.0660935000050813, 1.5159701998345554, 1.3988426001742482, 1.415543100098148, 1.3161792000755668, 3.565277799963951, 1.3161983001045883, 1.065776500152424, 0.8987699998542666, 1.716151700122282, 1.6489065000787377, 1.5991464001126587, 1.732697900151834, 1.632571600144729, 1.315922899870202, 1.6326885998714715, 1.3326681000180542, 1.4488524999469519, 1.4160778999794275, 1.0489463999401778, 1.3657680000178516, 2.39898890000768, 1.116001799935475, 1.8990380999166518, 4.0154665999580175, 3.4150480998214334, 1.4992173998616636, 3.182455600006506]",,347898,001,2022-11-06_18h50.48.193,Intentional Binding Task,2022.2.2,60.09781522125146,
0.7,1000,exp,4,11,59,5,282.2745907001663,283.27437420003116,283.27437420003116,283.27437420003116,space,0.5411903997883201,284.54101009005683,284.8410332000349,284.8410332000349,284.8410332000349,78,60,"[3.1604385001119226, 4.66554980003275, 2.1151699000038207, 1.3490667999722064, 3.249307099962607, 2.5823137001134455, 1.6659322001505643, 1.0663134001661092, 1.4994640999939293, 2.048883599927649, 1.315833600005135, 2.7825339001137763, 1.382040100172162, 1.3659227997995913, 1.415445800172165, 1.2659491000231355, 1.2492968998849392, 2.165511899860576, 1.4158975998871028, 1.7657471999991685, 2.465776300057769, 1.582227900158614, 1.2824691000860184, 2.1654391000047326, 1.3657381001394242, 3.848588699940592, 1.5654133998323232, 1.382181700086221, 1.2157598999328911, 1.0657147001475096, 2.1652312001679093, 1.0660908999852836, 1.515967199811712, 1.3988399000372738, 1.4155405000783503, 1.3161754999309778, 3.5652743000537157, 1.316194900078699, 1.0657739001326263, 0.8987674999516457, 1.7161491001024842, 1.64890390005894, 1.5991438999772072, 1.7326952000148594, 1.6325691000092775, 1.3159200998488814, 1.632684800075367, 1.3326653998810798, 1.448850000044331, 1.4160747001878917, 1.0489437999203801, 1.3657643001060933, 2.398985199863091, 1.1159991999156773, 1.899035600014031, 4.01546399993822, 3.4150455999188125, 1.499214799841866, 3.182451499858871, 1.5157572999596596]","[3.160443800035864, 4.665553899947554, 2.1151723999064416, 1.349069399992004, 3.2493096999824047, 2.582316300133243, 1.6659347000531852, 1.0663169000763446, 1.499466799898073, 2.0488861999474466, 1.3158364000264555, 2.782537200022489, 1.3820427001919597, 1.3659259998239577, 1.415448300074786, 1.2659527000505477, 1.2492994999047369, 2.1655146998818964, 1.4159001999069005, 1.7657496999017894, 2.4657789999619126, 1.5822305001784116, 1.2824725999962538, 2.165441600140184, 1.3657406999263912, 3.8485912000760436, 1.5654160999692976, 1.3821840998716652, 1.2157628000713885, 1.0657171001657844, 2.1652349000796676, 1.0660935000050813, 1.5159701998345554, 1.3988426001742482, 1.415543100098148, 1.3161792000755668, 3.565277799963951, 1.3161983001045883, 1.065776500152424, 0.8987699998542666, 1.716151700122282, 1.6489065000787377, 1.5991464001126587, 1.732697900151834, 1.632571600144729, 1.315922899870202, 1.6326885998714715, 1.3326681000180542, 1.4488524999469519, 1.4160778999794275, 1.0489463999401778, 1.3657680000178516, 2.39898890000768, 1.116001799935475, 1.8990380999166518, 4.0154665999580175, 3.4150480998214334, 1.4992173998616636, 3.182455600006506, 1.5157603998668492]",,347898,001,2022-11-06_18h50.48.193,Intentional Binding Task,2022.2.2,60.09781522125146,
