pos,corr_resp,trials.thisRepN,trials.thisTrialN,trials.thisN,trials.thisIndex,trials_2.thisRepN,trials_2.thisTrialN,trials_2.thisN,trials_2.thisIndex,fixation.started,line1.started,line2.started,line3.started,line4.started,fixation.stopped,probe.started,key_resp.started,key_resp.keys,key_resp.corr,key_resp.rt,probe.stopped,participant,session,date,expName,psychopyVersion,frameRate,
-50,x,0,0,0,0,,,,,20.203010700060986,21.17753830004949,21.17753830004949,21.17753830004949,21.17753830004949,21.210704300086945,22.17718400002923,22.17718400002923,x,1,0.7966888999799266,,822185,001,2022-10-03_13h36.32.575,motor sequence learning task,2022.2.2,60.024405927607134,
150,v,0,1,1,1,,,,,22.99376660003327,23.993680700077675,23.993680700077675,23.993680700077675,23.993680700077675,23.993680700077675,24.993648900068365,24.993648900068365,v,1,0.49771229992620647,,822185,001,2022-10-03_13h36.32.575,motor sequence learning task,2022.2.2,60.024405927607134,
50,c,0,2,2,2,,,,,25.509948900085874,26.50987500010524,26.50987500010524,26.50987500010524,26.50987500010524,26.50987500010524,27.509751700097695,27.509751700097695,c,1,0.44689370004925877,,822185,001,2022-10-03_13h36.32.575,motor sequence learning task,2022.2.2,60.024405927607134,
-150,z,0,3,3,3,,,,,27.97647400002461,28.976332599995658,28.976332599995658,28.976332599995658,28.976332599995658,28.976332599995658,29.97617630008608,29.97617630008608,z,1,0.7026192001067102,,822185,001,2022-10-03_13h36.32.575,motor sequence learning task,2022.2.2,60.024405927607134,
-50,x,1,0,4,0,,,,,30.709349200013094,31.709296100074425,31.709296100074425,31.709296100074425,31.709296100074425,31.709296100074425,32.70900190004613,32.70900190004613,x,1,0.9279761000070721,,822185,001,2022-10-03_13h36.32.575,motor sequence learning task,2022.2.2,60.024405927607134,
150,v,1,1,5,1,,,,,33.65886349999346,34.65882120002061,34.65882120002061,34.65882120002061,34.65882120002061,34.65882120002061,35.65866750001442,35.65866750001442,v,1,0.5861820999998599,,822185,001,2022-10-03_13h36.32.575,motor sequence learning task,2022.2.2,60.024405927607134,
50,c,1,2,6,2,,,,,36.27546570007689,37.275375300087035,37.275375300087035,37.275375300087035,37.275375300087035,37.275375300087035,38.27508100005798,38.27508100005798,c,1,0.5949347999412566,,822185,001,2022-10-03_13h36.32.575,motor sequence learning task,2022.2.2,60.024405927607134,
-150,z,1,3,7,3,,,,,38.89171500003431,39.89177170000039,39.89177170000039,39.89177170000039,39.89177170000039,39.89177170000039,40.89169540000148,40.89169540000148,z,1,0.49081790004856884,,822185,001,2022-10-03_13h36.32.575,motor sequence learning task,2022.2.2,60.024405927607134,
-50,x,2,0,8,0,,,,,41.40792460006196,42.4076743000187,42.4076743000187,42.4076743000187,42.4076743000187,42.4076743000187,43.40764840005431,43.40764840005431,x,1,1.0834784000180662,44.407483700080775,822185,001,2022-10-03_13h36.32.575,motor sequence learning task,2022.2.2,60.024405927607134,
150,v,2,1,9,1,,,,,44.50746340001933,45.507285300060175,45.507285300060175,45.507285300060175,45.507285300060175,45.507285300060175,46.507306300103664,46.507306300103664,v,1,0.3330802000127733,,822185,001,2022-10-03_13h36.32.575,motor sequence learning task,2022.2.2,60.024405927607134,
50,c,2,2,10,2,,,,,46.857294400106184,47.85703350009862,47.85703350009862,47.85703350009862,47.85703350009862,47.85703350009862,48.856877400074154,48.856877400074154,c,1,0.7514912000624463,,822185,001,2022-10-03_13h36.32.575,motor sequence learning task,2022.2.2,60.024405927607134,
-150,z,2,3,11,3,,,,,49.640451900078915,50.64028560009319,50.64028560009319,50.64028560009319,50.64028560009319,50.64028560009319,51.64004730002489,51.64004730002489,z,1,0.4477297000121325,,822185,001,2022-10-03_13h36.32.575,motor sequence learning task,2022.2.2,60.024405927607134,
-50,x,3,0,12,0,,,,,52.10657220007852,53.10656069999095,53.10656069999095,53.10656069999095,53.10656069999095,53.10656069999095,54.10649870010093,54.10649870010093,x,1,0.5654625999741256,,822185,001,2022-10-03_13h36.32.575,motor sequence learning task,2022.2.2,60.024405927607134,
150,v,3,1,13,1,,,,,54.68988940003328,55.68959790002555,55.68959790002555,55.68959790002555,55.68959790002555,55.68959790002555,56.68956630001776,56.68956630001776,v,1,0.505574099952355,,822185,001,2022-10-03_13h36.32.575,motor sequence learning task,2022.2.2,60.024405927607134,
50,c,3,2,14,2,,,,,57.222772100009024,58.22259000001941,58.22259000001941,58.22259000001941,58.22259000001941,58.22259000001941,59.2225163000403,59.2225163000403,c,1,0.4710264999885112,,822185,001,2022-10-03_13h36.32.575,motor sequence learning task,2022.2.2,60.024405927607134,
-150,z,3,3,15,3,,,,,59.72257400001399,60.72240790002979,60.72240790002979,60.72240790002979,60.72240790002979,60.72240790002979,61.721944000106305,61.721944000106305,z,1,0.804960299981758,,822185,001,2022-10-03_13h36.32.575,motor sequence learning task,2022.2.2,60.024405927607134,
-50,x,4,0,16,0,,,,,62.55547050002497,63.555454100016505,63.555454100016505,63.555454100016505,63.555454100016505,63.555454100016505,64.55516960006207,64.55516960006207,x,1,0.5155581999570131,,822185,001,2022-10-03_13h36.32.575,motor sequence learning task,2022.2.2,60.024405927607134,
150,v,4,1,17,1,,,,,65.08827000006568,66.08833220007364,66.08833220007364,66.08833220007364,66.08833220007364,66.08833220007364,67.08812680002302,67.08812680002302,v,1,0.7502519999397919,,822185,001,2022-10-03_13h36.32.575,motor sequence learning task,2022.2.2,60.024405927607134,
50,c,4,2,18,2,,,,,67.85452220006846,68.85447750007734,68.85447750007734,68.85447750007734,68.85447750007734,68.85447750007734,69.8545226000715,69.8545226000715,c,1,0.5030715999891981,,822185,001,2022-10-03_13h36.32.575,motor sequence learning task,2022.2.2,60.024405927607134,
-150,z,4,3,19,3,,,,,70.38788580009714,71.38767960004043,71.38767960004043,71.38767960004043,71.38767960004043,71.38767960004043,72.38740820006933,72.38740820006933,z,1,0.5005439999513328,,822185,001,2022-10-03_13h36.32.575,motor sequence learning task,2022.2.2,60.024405927607134,
-50,x,5,0,20,0,,,,,72.92084390006494,73.92061440006364,73.92061440006364,73.92061440006364,73.92061440006364,73.92061440006364,74.92042630002834,74.92042630002834,x,1,0.7146951999748126,,822185,001,2022-10-03_13h36.32.575,motor sequence learning task,2022.2.2,60.024405927607134,
150,v,5,1,21,1,,,,,75.65368180000223,76.65351590001956,76.65351590001956,76.65351590001956,76.65351590001956,76.65351590001956,77.6532400000142,77.6532400000142,v,1,0.6555611999938264,,822185,001,2022-10-03_13h36.32.575,motor sequence learning task,2022.2.2,60.024405927607134,
50,c,5,2,22,2,,,,,78.33672760007903,79.3366785000544,79.3366785000544,79.3366785000544,79.3366785000544,79.3366785000544,80.33650239999406,80.33650239999406,c,1,0.4834569999948144,,822185,001,2022-10-03_13h36.32.575,motor sequence learning task,2022.2.2,60.024405927607134,
-150,z,5,3,23,3,,,,,80.83657350006979,81.83646180003416,81.83646180003416,81.83646180003416,81.83646180003416,81.83646180003416,82.83623970008921,82.83623970008921,z,1,0.4846278999466449,,822185,001,2022-10-03_13h36.32.575,motor sequence learning task,2022.2.2,60.024405927607134,
-50,x,6,0,24,0,,,,,83.35261510009877,84.35262530006003,84.35262530006003,84.35262530006003,84.35262530006003,84.35262530006003,85.35235850000754,85.35235850000754,x,1,0.5871086000697687,,822185,001,2022-10-03_13h36.32.575,motor sequence learning task,2022.2.2,60.024405927607134,
150,v,6,1,25,1,,,,,85.96915580006316,86.96909130003769,86.96909130003769,86.96909130003769,86.96909130003769,86.96909130003769,87.96891370008234,87.96891370008234,v,1,0.4653996000997722,,822185,001,2022-10-03_13h36.32.575,motor sequence learning task,2022.2.2,60.024405927607134,
50,c,6,2,26,2,,,,,88.45208660000935,89.45165190007538,89.45165190007538,89.45165190007538,89.45165190007538,89.45165190007538,90.45183910010383,90.45183910010383,c,1,0.4764003000454977,,822185,001,2022-10-03_13h36.32.575,motor sequence learning task,2022.2.2,60.024405927607134,
-150,z,6,3,27,3,,,,,90.9516645000549,91.95157650008332,91.95157650008332,91.95157650008332,91.95157650008332,91.95157650008332,92.95142620010301,92.95142620010301,z,1,0.6155561999185011,,822185,001,2022-10-03_13h36.32.575,motor sequence learning task,2022.2.2,60.024405927607134,
-50,x,7,0,28,0,,,,,93.58482340001501,94.58480840001721,94.58480840001721,94.58480840001721,94.58480840001721,94.58480840001721,95.5843699000543,95.5843699000543,x,1,0.7105936999432743,,822185,001,2022-10-03_13h36.32.575,motor sequence learning task,2022.2.2,60.024405927607134,
150,v,7,1,29,1,,,,,96.31783810001798,97.31762139999773,97.31762139999773,97.31762139999773,97.31762139999773,97.31762139999773,98.31758380006067,98.31758380006067,v,1,0.4119435999309644,,822185,001,2022-10-03_13h36.32.575,motor sequence learning task,2022.2.2,60.024405927607134,
50,c,7,2,30,2,,,,,98.75086500006728,99.75051270006225,99.75051270006225,99.75051270006225,99.75051270006225,99.75051270006225,100.75044190010522,100.75044190010522,c,1,0.7571690001059324,,822185,001,2022-10-03_13h36.32.575,motor sequence learning task,2022.2.2,60.024405927607134,
-150,z,7,3,31,3,,,,,101.53389070008416,102.53382160002366,102.53382160002366,102.53382160002366,102.53382160002366,102.53382160002366,103.53356180002447,103.53356180002447,z,1,0.4673087999690324,,822185,001,2022-10-03_13h36.32.575,motor sequence learning task,2022.2.2,60.024405927607134,
-50,x,8,0,32,0,,,,,104.03343300009146,105.03334980004001,105.03334980004001,105.03334980004001,105.03334980004001,105.03334980004001,106.03324250003789,106.03324250003789,x,1,0.6463282000040635,,822185,001,2022-10-03_13h36.32.575,motor sequence learning task,2022.2.2,60.024405927607134,
150,v,8,1,33,1,,,,,106.69972090004012,107.69942210009322,107.69942210009322,107.69942210009322,107.69942210009322,107.69942210009322,108.69963090005331,108.69963090005331,v,1,0.41892989992629737,,822185,001,2022-10-03_13h36.32.575,motor sequence learning task,2022.2.2,60.024405927607134,
50,c,8,2,34,2,,,,,109.1493107000133,110.14932339999359,110.14932339999359,110.14932339999359,110.14932339999359,110.14932339999359,111.14933570008725,111.14933570008725,c,1,0.5334854000248015,,822185,001,2022-10-03_13h36.32.575,motor sequence learning task,2022.2.2,60.024405927607134,
-150,z,8,3,35,3,,,,,111.6991740000667,112.69889170001261,112.69889170001261,112.69889170001261,112.69889170001261,112.69889170001261,113.69873990002088,113.69873990002088,z,1,0.5935179999796674,,822185,001,2022-10-03_13h36.32.575,motor sequence learning task,2022.2.2,60.024405927607134,
-50,x,9,0,36,0,,,,,114.3157354000723,115.31543690001126,115.31543690001126,115.31543690001126,115.31543690001126,115.31543690001126,116.31518310005777,116.31518310005777,x,1,0.7189838000340387,,822185,001,2022-10-03_13h36.32.575,motor sequence learning task,2022.2.2,60.024405927607134,
150,v,9,1,37,1,,,,,117.06514030008111,118.06495080003515,118.06495080003515,118.06495080003515,118.06495080003515,118.06495080003515,119.06484580005053,119.06484580005053,v,1,0.7385749999666587,,822185,001,2022-10-03_13h36.32.575,motor sequence learning task,2022.2.2,60.024405927607134,
50,c,9,2,38,2,,,,,119.8314872001065,120.83136830001604,120.83136830001604,120.83136830001604,120.83136830001604,120.83136830001604,121.83127170009539,121.83127170009539,c,1,0.50017860007938,,822185,001,2022-10-03_13h36.32.575,motor sequence learning task,2022.2.2,60.024405927607134,
-150,z,9,3,39,3,,,,,122.34773730009329,123.34768910007551,123.34768910007551,123.34768910007551,123.34768910007551,123.34768910007551,124.34753510006703,124.34753510006703,z,1,0.45015970000531524,,822185,001,2022-10-03_13h36.32.575,motor sequence learning task,2022.2.2,60.024405927607134,
-50,x,10,0,40,0,,,,,124.8142234000843,125.81398840004113,125.81398840004113,125.81398840004113,125.81398840004113,125.81398840004113,126.81386910006404,126.81386910006404,x,1,0.5209132999880239,,822185,001,2022-10-03_13h36.32.575,motor sequence learning task,2022.2.2,60.024405927607134,
150,v,10,1,41,1,,,,,127.36379190010484,128.36380070005544,128.36380070005544,128.36380070005544,128.36380070005544,128.36380070005544,129.36364290001802,129.36364290001802,v,1,0.47967310005333275,,822185,001,2022-10-03_13h36.32.575,motor sequence learning task,2022.2.2,60.024405927607134,
50,c,10,2,42,2,,,,,129.86369130003732,130.86344960005954,130.86344960005954,130.86344960005954,130.86344960005954,130.86344960005954,131.863196899998,131.863196899998,c,1,0.6496066000545397,,822185,001,2022-10-03_13h36.32.575,motor sequence learning task,2022.2.2,60.024405927607134,
-150,z,10,3,43,3,,,,,132.52991889999248,133.52971520007122,133.52971520007122,133.52971520007122,133.52971520007122,133.52971520007122,134.52946180000436,134.52946180000436,z,1,0.5513469999423251,,822185,001,2022-10-03_13h36.32.575,motor sequence learning task,2022.2.2,60.024405927607134,
-50,x,11,0,44,0,,,,,135.11299350007903,136.1127418000251,136.1127418000251,136.1127418000251,136.1127418000251,136.1127418000251,137.11258559999987,137.11258559999987,x,1,0.5916399999987334,,822185,001,2022-10-03_13h36.32.575,motor sequence learning task,2022.2.2,60.024405927607134,
150,v,11,1,45,1,,,,,137.7292789000785,138.72911210008897,138.72911210008897,138.72911210008897,138.72911210008897,138.72911210008897,139.72902110009454,139.72902110009454,v,1,0.5139032000442967,,822185,001,2022-10-03_13h36.32.575,motor sequence learning task,2022.2.2,60.024405927607134,
50,c,11,2,46,2,,,,,140.26231320004445,141.26220610004384,141.26220610004384,141.26220610004384,141.26220610004384,141.26220610004384,142.2619669000851,142.2619669000851,c,1,0.653909599990584,,822185,001,2022-10-03_13h36.32.575,motor sequence learning task,2022.2.2,60.024405927607134,
-150,z,11,3,47,3,,,,,142.9451516000554,143.94493019999936,143.94493019999936,143.94493019999936,143.94493019999936,143.94493019999936,144.94479890004732,144.94479890004732,z,1,0.7050346999894828,,822185,001,2022-10-03_13h36.32.575,motor sequence learning task,2022.2.2,60.024405927607134,
-50,x,12,0,48,0,,,,,145.6782749000704,146.67798400006723,146.67798400006723,146.67798400006723,146.67798400006723,146.67798400006723,147.67805430002045,147.67805430002045,x,1,0.4906343000475317,,822185,001,2022-10-03_13h36.32.575,motor sequence learning task,2022.2.2,60.024405927607134,
150,v,12,1,49,1,,,,,148.19434350007214,149.19417650008108,149.19417650008108,149.19417650008108,149.19417650008108,149.19417650008108,150.1942186000524,150.1942186000524,v,1,0.5833359999815002,,822185,001,2022-10-03_13h36.32.575,motor sequence learning task,2022.2.2,60.024405927607134,
50,c,12,2,50,2,,,,,150.79399160004687,151.79385760007426,151.79385760007426,151.79385760007426,151.79385760007426,151.79385760007426,152.79364849999547,152.79364849999547,c,1,0.547282199957408,,822185,001,2022-10-03_13h36.32.575,motor sequence learning task,2022.2.2,60.024405927607134,
-150,z,12,3,51,3,,,,,153.36050650000107,154.36051740008406,154.36051740008406,154.36051740008406,154.36051740008406,154.36051740008406,155.36016300006304,155.36016300006304,z,1,0.3895837999880314,,822185,001,2022-10-03_13h36.32.575,motor sequence learning task,2022.2.2,60.024405927607134,
-50,x,13,0,52,0,,,,,155.77697000000626,156.77682800008915,156.77682800008915,156.77682800008915,156.77682800008915,156.77682800008915,157.77644819999114,157.77644819999114,x,1,0.7220465999562293,,822185,001,2022-10-03_13h36.32.575,motor sequence learning task,2022.2.2,60.024405927607134,
150,v,13,1,53,1,,,,,158.52650870010257,159.5264945999952,159.5264945999952,159.5264945999952,159.5264945999952,159.5264945999952,160.52633390005212,160.52633390005212,v,1,0.3466424999060109,,822185,001,2022-10-03_13h36.32.575,motor sequence learning task,2022.2.2,60.024405927607134,
50,c,13,2,54,2,,,,,160.89291040005628,161.89276419999078,161.89276419999078,161.89276419999078,161.89276419999078,161.89276419999078,162.8925921000773,162.8925921000773,c,1,0.4348576000193134,,822185,001,2022-10-03_13h36.32.575,motor sequence learning task,2022.2.2,60.024405927607134,
-150,z,13,3,55,3,,,,,163.3593704000814,164.35898970009293,164.35898970009293,164.35898970009293,164.35898970009293,164.35898970009293,165.35899420001078,165.35899420001078,z,1,0.6066974999848753,,822185,001,2022-10-03_13h36.32.575,motor sequence learning task,2022.2.2,60.024405927607134,
-50,x,14,0,56,0,,,,,165.99222160002682,166.99191670003347,166.99191670003347,166.99191670003347,166.99191670003347,166.99191670003347,167.9920214000158,167.9920214000158,x,1,0.6780547000234947,,822185,001,2022-10-03_13h36.32.575,motor sequence learning task,2022.2.2,60.024405927607134,
150,v,14,1,57,1,,,,,168.6917514000088,169.69153970002662,169.69153970002662,169.69153970002662,169.69153970002662,169.69153970002662,170.69146430003457,170.69146430003457,v,1,0.5357821999350563,,822185,001,2022-10-03_13h36.32.575,motor sequence learning task,2022.2.2,60.024405927607134,
50,c,14,2,58,2,,,,,171.2583830000367,172.25805170007516,172.25805170007516,172.25805170007516,172.25805170007516,172.25805170007516,173.258054700098,173.258054700098,c,1,0.5035933000035584,,822185,001,2022-10-03_13h36.32.575,motor sequence learning task,2022.2.2,60.024405927607134,
-150,z,14,3,59,3,,,,,173.79140200000256,174.79110460006632,174.79110460006632,174.79110460006632,174.79110460006632,174.79110460006632,175.79086280008778,175.79086280008778,z,1,0.3748805000213906,,822185,001,2022-10-03_13h36.32.575,motor sequence learning task,2022.2.2,60.024405927607134,
-50,x,15,0,60,0,,,,,176.19095560000278,177.19064670009539,177.19064670009539,177.19064670009539,177.19064670009539,177.19064670009539,178.1905230000848,178.1905230000848,x,1,0.3692271000472829,,822185,001,2022-10-03_13h36.32.575,motor sequence learning task,2022.2.2,60.024405927607134,
150,v,15,1,61,1,,,,,178.5903682000935,179.5905281000305,179.5905281000305,179.5905281000305,179.5905281000305,179.5905281000305,180.59002600004897,180.59002600004897,v,1,0.39408460003323853,,822185,001,2022-10-03_13h36.32.575,motor sequence learning task,2022.2.2,60.024405927607134,
50,c,15,2,62,2,,,,,181.0069673000835,182.0068361000158,182.0068361000158,182.0068361000158,182.0068361000158,182.0068361000158,183.0067010000348,183.0067010000348,c,1,0.5015854999655858,,822185,001,2022-10-03_13h36.32.575,motor sequence learning task,2022.2.2,60.024405927607134,
-150,z,15,3,63,3,,,,,183.53981119999662,184.53971030004323,184.53971030004323,184.53971030004323,184.53971030004323,184.53971030004323,185.5397675000131,185.5397675000131,z,1,0.3616512999869883,,822185,001,2022-10-03_13h36.32.575,motor sequence learning task,2022.2.2,60.024405927607134,
-50,x,16,0,64,0,,,,,185.92304510006215,186.9228610000573,186.9228610000573,186.9228610000573,186.9228610000573,186.9228610000573,187.92277730000205,187.92277730000205,x,1,0.44371749996207654,,822185,001,2022-10-03_13h36.32.575,motor sequence learning task,2022.2.2,60.024405927607134,
150,v,16,1,65,1,,,,,188.38920480001252,189.38915020006243,189.38915020006243,189.38915020006243,189.38915020006243,189.38915020006243,190.38913260004483,190.38913260004483,v,1,0.5648593999212608,,822185,001,2022-10-03_13h36.32.575,motor sequence learning task,2022.2.2,60.024405927607134,
50,c,16,2,66,2,,,,,190.97245960007422,191.97222830005921,191.97222830005921,191.97222830005921,191.97222830005921,191.97222830005921,192.9721600000048,192.9721600000048,c,1,0.4756396000739187,,822185,001,2022-10-03_13h36.32.575,motor sequence learning task,2022.2.2,60.024405927607134,
-150,z,16,3,67,3,,,,,193.47219320002478,194.47195130004548,194.47195130004548,194.47195130004548,194.47195130004548,194.47195130004548,195.47196530003566,195.47196530003566,z,1,0.5848185999784619,,822185,001,2022-10-03_13h36.32.575,motor sequence learning task,2022.2.2,60.024405927607134,
-50,x,17,0,68,0,,,,,196.08843020000495,197.0881121000275,197.0881121000275,197.0881121000275,197.0881121000275,197.0881121000275,198.08821080008056,198.08821080008056,x,1,0.48348840000107884,,822185,001,2022-10-03_13h36.32.575,motor sequence learning task,2022.2.2,60.024405927607134,
150,v,17,1,69,1,,,,,198.5880909000989,199.58771069999784,199.58771069999784,199.58771069999784,199.58771069999784,199.58771069999784,200.5875965000596,200.5875965000596,v,1,0.3717050999403,,822185,001,2022-10-03_13h36.32.575,motor sequence learning task,2022.2.2,60.024405927607134,
50,c,17,2,70,2,,,,,200.9877964000916,201.98753810010385,201.98753810010385,201.98753810010385,201.98753810010385,201.98753810010385,202.98737870005425,202.98737870005425,c,1,0.5471301999641582,,822185,001,2022-10-03_13h36.32.575,motor sequence learning task,2022.2.2,60.024405927607134,
-150,z,17,3,71,3,,,,,203.5541279000463,204.55406150000636,204.55406150000636,204.55406150000636,204.55406150000636,204.55406150000636,205.55396330007352,205.55396330007352,z,1,0.6128746999893337,,822185,001,2022-10-03_13h36.32.575,motor sequence learning task,2022.2.2,60.024405927607134,
-50,x,18,0,72,0,,,,,206.18715990008786,207.1868501000572,207.1868501000572,207.1868501000572,207.1868501000572,207.1868501000572,208.18679230008274,208.18679230008274,z,0,0.9624295000685379,,822185,001,2022-10-03_13h36.32.575,motor sequence learning task,2022.2.2,60.024405927607134,
150,v,18,1,73,1,,,,,209.17008950002491,210.1699928001035,210.1699928001035,210.1699928001035,210.1699928001035,210.1699928001035,211.1698448000243,211.1698448000243,v,1,0.9559956999728456,,822185,001,2022-10-03_13h36.32.575,motor sequence learning task,2022.2.2,60.024405927607134,
50,c,18,2,74,2,,,,,212.15310510003474,213.15288360009436,213.15288360009436,213.15288360009436,213.15288360009436,213.15288360009436,214.15290000010282,214.15290000010282,c,1,0.7658356999745592,,822185,001,2022-10-03_13h36.32.575,motor sequence learning task,2022.2.2,60.024405927607134,
-150,z,18,3,75,3,,,,,214.93603970005643,215.9356025001034,215.9356025001034,215.9356025001034,215.9356025001034,215.9356025001034,216.9355482000392,216.9355482000392,z,1,0.905784499947913,,822185,001,2022-10-03_13h36.32.575,motor sequence learning task,2022.2.2,60.024405927607134,
-50,x,19,0,76,0,,,,,217.8690060999943,218.86879540001974,218.86879540001974,218.86879540001974,218.86879540001974,218.86879540001974,219.8687507000286,219.8687507000286,c,0,1.5081845000386238,220.86873500002548,822185,001,2022-10-03_13h36.32.575,motor sequence learning task,2022.2.2,60.024405927607134,
150,v,19,1,77,1,,,,,221.40194850007538,222.4018493000185,222.4018493000185,222.4018493000185,222.4018493000185,222.4018493000185,223.4017376000993,223.4017376000993,v,1,0.45334320003166795,,822185,001,2022-10-03_13h36.32.575,motor sequence learning task,2022.2.2,60.024405927607134,
50,c,19,2,78,2,,,,,223.88466620002873,224.88452510000207,224.88452510000207,224.88452510000207,224.88452510000207,224.88452510000207,225.884523200104,225.884523200104,c,1,0.43025599990505725,,822185,001,2022-10-03_13h36.32.575,motor sequence learning task,2022.2.2,60.024405927607134,
-150,z,19,3,79,3,,,,,226.334344800096,227.3341756000882,227.3341756000882,227.3341756000882,227.3341756000882,227.3341756000882,228.33402670000214,228.33402670000214,z,1,0.6183675000211224,,822185,001,2022-10-03_13h36.32.575,motor sequence learning task,2022.2.2,60.024405927607134,
-50,x,20,0,80,0,,,,,228.984073300031,229.98387680004817,229.98387680004817,229.98387680004817,229.98387680004817,229.98387680004817,230.9839173000073,230.9839173000073,x,1,0.4941298000048846,,822185,001,2022-10-03_13h36.32.575,motor sequence learning task,2022.2.2,60.024405927607134,
150,v,20,1,81,1,,,,,231.50064330000896,232.50048690009862,232.50048690009862,232.50048690009862,232.50048690009862,232.50048690009862,233.50032440002542,233.50032440002542,v,1,0.38477500004228204,,822185,001,2022-10-03_13h36.32.575,motor sequence learning task,2022.2.2,60.024405927607134,
50,c,20,2,82,2,,,,,233.91711610008497,234.91671580006368,234.91671580006368,234.91671580006368,234.91671580006368,234.91671580006368,235.91653150005732,235.91653150005732,c,1,1.1310120000271127,236.91645270003937,822185,001,2022-10-03_13h36.32.575,motor sequence learning task,2022.2.2,60.024405927607134,
-150,z,20,3,83,3,,,,,237.06650840002112,238.06626460002735,238.06626460002735,238.06626460002735,238.06626460002735,238.06626460002735,239.06632770004217,239.06632770004217,z,1,0.7938699999358505,,822185,001,2022-10-03_13h36.32.575,motor sequence learning task,2022.2.2,60.024405927607134,
-50,x,21,0,84,0,,,,,239.88268360006623,240.8824445999926,240.8824445999926,240.8824445999926,240.8824445999926,240.8824445999926,241.88236480008345,241.88236480008345,x,1,0.9748178001027554,242.8824798000278,822185,001,2022-10-03_13h36.32.575,motor sequence learning task,2022.2.2,60.024405927607134,
150,v,21,1,85,1,,,,,242.8824798000278,243.88217910006642,243.88217910006642,243.88217910006642,243.88217910006642,243.88217910006642,244.88209620001726,244.88209620001726,v,1,0.44872520002536476,,822185,001,2022-10-03_13h36.32.575,motor sequence learning task,2022.2.2,60.024405927607134,
50,c,21,2,86,2,,,,,245.34890270000324,246.34871440008283,246.34871440008283,246.34871440008283,246.34871440008283,246.34871440008283,247.34856760001276,247.34856760001276,c,1,0.39094469998963177,,822185,001,2022-10-03_13h36.32.575,motor sequence learning task,2022.2.2,60.024405927607134,
-150,z,21,3,87,3,,,,,247.7651504999958,248.76506430003792,248.76506430003792,248.76506430003792,248.76506430003792,248.76506430003792,249.7649704000214,249.7649704000214,z,1,0.5730319999856874,,822185,001,2022-10-03_13h36.32.575,motor sequence learning task,2022.2.2,60.024405927607134,
-50,x,22,0,88,0,,,,,250.36475940002128,251.36475150007755,251.36475150007755,251.36475150007755,251.36475150007755,251.36475150007755,252.36477780004498,252.36477780004498,x,1,1.883747800020501,253.36451560002752,822185,001,2022-10-03_13h36.32.575,motor sequence learning task,2022.2.2,60.024405927607134,
150,v,22,1,89,1,,,,,254.28077750001103,255.28063020005357,255.28063020005357,255.28063020005357,255.28063020005357,255.28063020005357,256.2806516001001,256.2806516001001,v,1,0.5409294000128284,,822185,001,2022-10-03_13h36.32.575,motor sequence learning task,2022.2.2,60.024405927607134,
50,c,22,2,90,2,,,,,256.84732160007115,257.84731930005364,257.84731930005364,257.84731930005364,257.84731930005364,257.84731930005364,258.84672860009596,258.84672860009596,c,1,0.5840058999601752,,822185,001,2022-10-03_13h36.32.575,motor sequence learning task,2022.2.2,60.024405927607134,
-150,z,22,3,91,3,,,,,259.4637980000116,260.4636133000022,260.4636133000022,260.4636133000022,260.4636133000022,260.4636133000022,261.4630430000834,261.4630430000834,z,1,0.6447283000452444,,822185,001,2022-10-03_13h36.32.575,motor sequence learning task,2022.2.2,60.024405927607134,
-50,x,23,0,92,0,,,,,262.1295528000919,263.12932910001837,263.12932910001837,263.12932910001837,263.12932910001837,263.12932910001837,264.1292291000718,264.1292291000718,x,1,0.3632921000244096,,822185,001,2022-10-03_13h36.32.575,motor sequence learning task,2022.2.2,60.024405927607134,
150,v,23,1,93,1,,,,,264.512817800045,265.51275770005304,265.51275770005304,265.51275770005304,265.51275770005304,265.51275770005304,266.5126761000138,266.5126761000138,v,1,0.6077041999669746,,822185,001,2022-10-03_13h36.32.575,motor sequence learning task,2022.2.2,60.024405927607134,
50,c,23,2,94,2,,,,,267.14594870002475,268.14554820000194,268.14554820000194,268.14554820000194,268.14554820000194,268.14554820000194,269.1453970000148,269.1453970000148,c,1,0.41394839994609356,,822185,001,2022-10-03_13h36.32.575,motor sequence learning task,2022.2.2,60.024405927607134,
-150,z,23,3,95,3,,,,,269.5785667001037,270.5783989999909,270.5783989999909,270.5783989999909,270.5783989999909,270.5783989999909,271.5783015000634,271.5783015000634,z,1,0.5800850000232458,,822185,001,2022-10-03_13h36.32.575,motor sequence learning task,2022.2.2,60.024405927607134,
-50,x,,,,,0,0,0,0,272.1782849000301,273.1783202000661,273.1783202000661,273.1783202000661,273.1783202000661,273.1783202000661,274.1782443000702,274.1782443000702,x,1,0.6242167999735102,,822185,001,2022-10-03_13h36.32.575,motor sequence learning task,2022.2.2,60.024405927607134,
150,v,,,,,0,1,1,1,274.8281802000711,275.82813390006777,275.82813390006777,275.82813390006777,275.82813390006777,275.82813390006777,276.82801520009525,276.82801520009525,v,1,0.6470947000198066,,822185,001,2022-10-03_13h36.32.575,motor sequence learning task,2022.2.2,60.024405927607134,
-150,z,,,,,0,2,2,3,277.4946863000514,278.49442560004536,278.49442560004536,278.49442560004536,278.49442560004536,278.49442560004536,279.49428750004154,279.49428750004154,z,1,0.8034775999840349,,822185,001,2022-10-03_13h36.32.575,motor sequence learning task,2022.2.2,60.024405927607134,
50,c,,,,,0,3,3,2,280.32753970008343,281.32735540007707,281.32735540007707,281.32735540007707,281.32735540007707,281.32735540007707,282.3272993999999,282.3272993999999,c,1,0.9741555000655353,283.3271652000258,822185,001,2022-10-03_13h36.32.575,motor sequence learning task,2022.2.2,60.024405927607134,
150,v,,,,,1,0,4,1,283.3271652000258,284.32698470004834,284.32698470004834,284.32698470004834,284.32698470004834,284.32698470004834,285.32690159999765,285.32690159999765,v,1,1.344828199944459,286.3267726000631,822185,001,2022-10-03_13h36.32.575,motor sequence learning task,2022.2.2,60.024405927607134,
-150,z,,,,,1,1,5,3,286.6936929000076,287.6766472000163,287.6766472000163,287.6766472000163,287.6766472000163,287.69325550005306,288.69312930002343,288.69312930002343,z,1,1.0552459999453276,289.6930352000054,822185,001,2022-10-03_13h36.32.575,motor sequence learning task,2022.2.2,60.024405927607134,
50,c,,,,,1,2,6,2,289.776397800073,290.77613900008146,290.77613900008146,290.77613900008146,290.77613900008146,290.77613900008146,291.77607330004685,291.77607330004685,c,1,0.6211823000339791,,822185,001,2022-10-03_13h36.32.575,motor sequence learning task,2022.2.2,60.024405927607134,
-150,z,,,,,1,3,7,3,292.4260090000462,293.4258278000634,293.4258278000634,293.4258278000634,293.4258278000634,293.4258278000634,294.42569629999343,294.42569629999343,z,1,0.5462680000346154,,822185,001,2022-10-03_13h36.32.575,motor sequence learning task,2022.2.2,60.024405927607134,
50,c,,,,,2,0,8,2,294.99253170005977,295.99231670005247,295.99231670005247,295.99231670005247,295.99231670005247,295.99231670005247,296.99215510010254,296.99215510010254,c,1,0.7069504000246525,,822185,001,2022-10-03_13h36.32.575,motor sequence learning task,2022.2.2,60.024405927607134,
-50,x,,,,,2,1,9,0,297.72534720005933,298.72520950005855,298.72520950005855,298.72520950005855,298.72520950005855,298.72520950005855,299.72506850003265,299.72506850003265,x,1,0.7272593999514356,,822185,001,2022-10-03_13h36.32.575,motor sequence learning task,2022.2.2,60.024405927607134,
150,v,,,,,2,2,10,1,300.47492520010564,301.4748697000323,301.4748697000323,301.4748697000323,301.4748697000323,301.4748697000323,302.4746785000898,302.4746785000898,v,1,0.6857284000143409,,822185,001,2022-10-03_13h36.32.575,motor sequence learning task,2022.2.2,60.024405927607134,
50,c,,,,,2,3,11,2,303.1914740999928,304.1912358000409,304.1912358000409,304.1912358000409,304.1912358000409,304.1912358000409,305.19101080007385,305.19101080007385,c,1,0.5586118999635801,,822185,001,2022-10-03_13h36.32.575,motor sequence learning task,2022.2.2,60.024405927607134,
-50,x,,,,,3,0,12,0,305.7742098000599,306.774112300016,306.774112300016,306.774112300016,306.774112300016,306.774112300016,307.77392740000505,307.77392740000505,x,1,0.5253108999459073,,822185,001,2022-10-03_13h36.32.575,motor sequence learning task,2022.2.2,60.024405927607134,
50,c,,,,,3,1,13,2,308.3239562000381,309.32372810004745,309.32372810004745,309.32372810004745,309.32372810004745,309.32372810004745,310.3237056999933,310.3237056999933,c,1,1.1814252000767738,311.3235530999955,822185,001,2022-10-03_13h36.32.575,motor sequence learning task,2022.2.2,60.024405927607134,
50,c,,,,,3,2,14,2,311.523598000058,312.52340560010634,312.52340560010634,312.52340560010634,312.52340560010634,312.52340560010634,313.5233209000435,313.5233209000435,c,1,1.063253999920562,314.52308110008016,822185,001,2022-10-03_13h36.32.575,motor sequence learning task,2022.2.2,60.024405927607134,
150,v,,,,,3,3,15,1,314.6065696000587,315.60633120010607,315.60633120010607,315.60633120010607,315.60633120010607,315.60633120010607,316.6063272000756,316.6063272000756,v,1,0.5000006000045687,,822185,001,2022-10-03_13h36.32.575,motor sequence learning task,2022.2.2,60.024405927607134,
-150,z,,,,,4,0,16,3,317.12280800007284,318.1227302000625,318.1227302000625,318.1227302000625,318.1227302000625,318.1227302000625,319.12253240006976,319.12253240006976,z,1,0.48626939998939633,,822185,001,2022-10-03_13h36.32.575,motor sequence learning task,2022.2.2,60.024405927607134,
-50,x,,,,,4,1,17,0,319.63942100002896,320.63929630001076,320.63929630001076,320.63929630001076,320.63929630001076,320.63929630001076,321.63896020001266,321.63896020001266,x,1,0.8186822000425309,,822185,001,2022-10-03_13h36.32.575,motor sequence learning task,2022.2.2,60.024405927607134,
-150,z,,,,,4,2,18,3,322.48891920002643,323.4887915001018,323.4887915001018,323.4887915001018,323.4887915001018,323.4887915001018,324.4885931001045,324.4885931001045,z,1,0.6115516000427306,,822185,001,2022-10-03_13h36.32.575,motor sequence learning task,2022.2.2,60.024405927607134,
-50,x,,,,,4,3,19,0,325.1217623000266,326.12163800001144,326.12163800001144,326.12163800001144,326.12163800001144,326.12163800001144,327.12152050004806,327.12152050004806,x,1,0.7077760000247508,,822185,001,2022-10-03_13h36.32.575,motor sequence learning task,2022.2.2,60.024405927607134,
-50,x,,,,,5,0,20,0,327.8549265000038,328.85480630001985,328.85480630001985,328.85480630001985,328.85480630001985,328.85480630001985,329.85455770010594,329.85455770010594,x,1,0.6473120999289677,,822185,001,2022-10-03_13h36.32.575,motor sequence learning task,2022.2.2,60.024405927607134,
150,v,,,,,5,1,21,1,330.52112520008814,331.52096550003625,331.52096550003625,331.52096550003625,331.52096550003625,331.52096550003625,332.5207403000677,332.5207403000677,v,1,0.4895451999036595,,822185,001,2022-10-03_13h36.32.575,motor sequence learning task,2022.2.2,60.024405927607134,
-150,z,,,,,5,2,22,3,333.03761480003595,334.03754470008425,334.03754470008425,334.03754470008425,334.03754470008425,334.03754470008425,335.03732040000614,335.03732040000614,z,1,0.6465180000523105,,822185,001,2022-10-03_13h36.32.575,motor sequence learning task,2022.2.2,60.024405927607134,
50,c,,,,,5,3,23,2,335.703854600084,336.7037239000201,336.7037239000201,336.7037239000201,336.7037239000201,336.7037239000201,337.7036342000356,337.7036342000356,c,1,0.7780124000273645,,822185,001,2022-10-03_13h36.32.575,motor sequence learning task,2022.2.2,60.024405927607134,
-50,x,,,,,6,0,24,0,338.5034517000895,339.50346530007664,339.50346530007664,339.50346530007664,339.50346530007664,339.50346530007664,340.503240799997,340.503240799997,x,1,0.6569313000654802,,822185,001,2022-10-03_13h36.32.575,motor sequence learning task,2022.2.2,60.024405927607134,
50,c,,,,,6,1,25,2,341.18665750010405,342.1862314000027,342.1862314000027,342.1862314000027,342.1862314000027,342.1862314000027,343.18619830009993,343.18619830009993,c,1,0.7914033000124618,,822185,001,2022-10-03_13h36.32.575,motor sequence learning task,2022.2.2,60.024405927607134,
-50,x,,,,,6,2,26,0,344.00288470007945,345.0026228000643,345.0026228000643,345.0026228000643,345.0026228000643,345.0026228000643,346.0026419000933,346.0026419000933,x,1,0.7980756999459118,,822185,001,2022-10-03_13h36.32.575,motor sequence learning task,2022.2.2,60.024405927607134,
-150,z,,,,,6,3,27,3,346.81914320006035,347.81889690004755,347.81889690004755,347.81889690004755,347.81889690004755,347.81889690004755,348.8187953000888,348.8187953000888,z,1,0.5262865000404418,,822185,001,2022-10-03_13h36.32.575,motor sequence learning task,2022.2.2,60.024405927607134,
-150,z,,,,,7,0,28,3,349.3687243000604,350.36855160002597,350.36855160002597,350.36855160002597,350.36855160002597,350.36855160002597,351.36845539999194,351.36845539999194,z,1,0.6641632999526337,,822185,001,2022-10-03_13h36.32.575,motor sequence learning task,2022.2.2,60.024405927607134,
150,v,,,,,7,1,29,1,352.0518887999933,353.0517466000747,353.0517466000747,353.0517466000747,353.0517466000747,353.0517466000747,354.0514747000998,354.0514747000998,v,1,0.5004469999112189,,822185,001,2022-10-03_13h36.32.575,motor sequence learning task,2022.2.2,60.024405927607134,
-50,x,,,,,7,2,30,0,354.5846995000029,355.58460260007996,355.58460260007996,355.58460260007996,355.58460260007996,355.58460260007996,356.5845389000606,356.5845389000606,x,1,0.7844993999460712,,822185,001,2022-10-03_13h36.32.575,motor sequence learning task,2022.2.2,60.024405927607134,
-50,x,,,,,7,3,31,0,357.40123519999906,358.4008341000881,358.4008341000881,358.4008341000881,358.4008341000881,358.4008341000881,359.4008695000084,359.4008695000084,x,1,0.7724762000143528,,822185,001,2022-10-03_13h36.32.575,motor sequence learning task,2022.2.2,60.024405927607134,
150,v,,,,,8,0,32,1,360.20076690008864,361.20060570002533,361.20060570002533,361.20060570002533,361.20060570002533,361.20060570002533,362.200419300003,362.200419300003,v,1,0.6155508999945596,,822185,001,2022-10-03_13h36.32.575,motor sequence learning task,2022.2.2,60.024405927607134,
-50,x,,,,,8,1,33,0,362.8337484000949,363.8336238000775,363.8336238000775,363.8336238000775,363.8336238000775,363.8336238000775,364.8334737000987,364.8334737000987,x,1,0.7855208000401035,,822185,001,2022-10-03_13h36.32.575,motor sequence learning task,2022.2.2,60.024405927607134,
150,v,,,,,8,2,34,1,365.6500070000766,366.64980160002597,366.64980160002597,366.64980160002597,366.64980160002597,366.64980160002597,367.6497510999907,367.6497510999907,v,1,0.6925837999442592,,822185,001,2022-10-03_13h36.32.575,motor sequence learning task,2022.2.2,60.024405927607134,
50,c,,,,,8,3,35,2,368.36630850005895,369.3660710999975,369.3660710999975,369.3660710999975,369.3660710999975,369.3660710999975,370.3660225000931,370.3660225000931,c,1,0.9998458999907598,371.3658686000854,822185,001,2022-10-03_13h36.32.575,motor sequence learning task,2022.2.2,60.024405927607134,
150,v,,,,,9,0,36,1,371.3827685000142,372.38259040005505,372.38259040005505,372.38259040005505,372.38259040005505,372.38259040005505,373.3823672001017,373.3823672001017,v,1,0.6405070000328124,,822185,001,2022-10-03_13h36.32.575,motor sequence learning task,2022.2.2,60.024405927607134,
50,c,,,,,9,1,37,2,374.0490304999985,375.0488053000299,375.0488053000299,375.0488053000299,375.0488053000299,375.0488053000299,376.0487590000266,376.0487590000266,c,1,0.886954199988395,,822185,001,2022-10-03_13h36.32.575,motor sequence learning task,2022.2.2,60.024405927607134,
-50,x,,,,,9,2,38,0,376.9652860000497,377.96493910008576,377.96493910008576,377.96493910008576,377.96493910008576,377.96493910008576,378.96492850000504,378.96492850000504,x,1,0.5394274999853224,,822185,001,2022-10-03_13h36.32.575,motor sequence learning task,2022.2.2,60.024405927607134,
150,v,,,,,9,3,39,1,379.53167210007086,380.53148560004774,380.53148560004774,380.53148560004774,380.53148560004774,380.53148560004774,381.5313520000782,381.5313520000782,v,1,1.2850830000825226,382.5313206000719,822185,001,2022-10-03_13h36.32.575,motor sequence learning task,2022.2.2,60.024405927607134,
150,v,,,,,10,0,40,1,382.8479021000676,383.84764890000224,383.84764890000224,383.84764890000224,383.84764890000224,383.84764890000224,384.84759280004073,384.84759280004073,v,1,0.5366387999383733,,822185,001,2022-10-03_13h36.32.575,motor sequence learning task,2022.2.2,60.024405927607134,
-150,z,,,,,10,1,41,3,385.41416820010636,386.41396070003975,386.41396070003975,386.41396070003975,386.41396070003975,386.41396070003975,387.4139055000851,387.4139055000851,z,1,0.6547869000351056,,822185,001,2022-10-03_13h36.32.575,motor sequence learning task,2022.2.2,60.024405927607134,
-150,z,,,,,10,2,42,3,388.09702069999184,389.0969109000871,389.0969109000871,389.0969109000871,389.0969109000871,389.0969109000871,390.09690450003836,390.09690450003836,z,1,1.3367782999994233,391.0968325000722,822185,001,2022-10-03_13h36.32.575,motor sequence learning task,2022.2.2,60.024405927607134,
150,v,,,,,10,3,43,1,391.46338830003515,392.46322790009435,392.46322790009435,392.46322790009435,392.46322790009435,392.46322790009435,393.4631171000656,393.4631171000656,v,1,0.8088095999555662,,822185,001,2022-10-03_13h36.32.575,motor sequence learning task,2022.2.2,60.024405927607134,
-50,x,,,,,11,0,44,0,394.29644900001585,395.2963270000182,395.2963270000182,395.2963270000182,395.2963270000182,395.2963270000182,396.29615250008646,396.29615250008646,x,1,0.5997748000081629,,822185,001,2022-10-03_13h36.32.575,motor sequence learning task,2022.2.2,60.024405927607134,
-50,x,,,,,11,1,45,0,396.9126478000544,397.9125753000844,397.9125753000844,397.9125753000844,397.9125753000844,397.9125753000844,398.9124400001019,398.9124400001019,x,1,0.6909296000376344,,822185,001,2022-10-03_13h36.32.575,motor sequence learning task,2022.2.2,60.024405927607134,
-50,x,,,,,11,2,46,0,399.62900549999904,400.6289691000711,400.6289691000711,400.6289691000711,400.6289691000711,400.6289691000711,401.6287531000562,401.6287531000562,x,1,0.49781450000591576,,822185,001,2022-10-03_13h36.32.575,motor sequence learning task,2022.2.2,60.024405927607134,
150,v,,,,,11,3,47,1,402.14556140010245,403.14521180000156,403.14521180000156,403.14521180000156,403.14521180000156,403.14521180000156,404.14523950009607,404.14523950009607,v,1,0.4113742000190541,,822185,001,2022-10-03_13h36.32.575,motor sequence learning task,2022.2.2,60.024405927607134,
-150,z,,,,,12,0,48,3,404.5784265000839,405.56157910008915,405.56157910008915,405.56157910008915,405.56157910008915,405.57822220004164,406.5783370001009,406.5783370001009,z,1,0.49765979999210685,,822185,001,2022-10-03_13h36.32.575,motor sequence learning task,2022.2.2,60.024405927607134,
-150,z,,,,,12,1,49,3,407.09475940000266,408.0944550000131,408.0944550000131,408.0944550000131,408.0944550000131,408.0944550000131,409.09450820006896,409.09450820006896,z,1,0.6533377000596374,,822185,001,2022-10-03_13h36.32.575,motor sequence learning task,2022.2.2,60.024405927607134,
50,c,,,,,12,2,50,2,409.7776912000263,410.77758240001276,410.77758240001276,410.77758240001276,410.77758240001276,410.77758240001276,411.77745950000826,411.77745950000826,c,1,0.8036265999544412,,822185,001,2022-10-03_13h36.32.575,motor sequence learning task,2022.2.2,60.024405927607134,
50,c,,,,,12,3,51,2,412.61070990003645,413.6105673999991,413.6105673999991,413.6105673999991,413.6105673999991,413.6105673999991,414.6103982999921,414.6103982999921,c,1,0.6885302000446245,,822185,001,2022-10-03_13h36.32.575,motor sequence learning task,2022.2.2,60.024405927607134,
-50,x,,,,,13,0,52,0,415.327034200076,416.32696710003074,416.32696710003074,416.32696710003074,416.32696710003074,416.32696710003074,417.32678160001524,417.32678160001524,x,1,0.6161038000136614,,822185,001,2022-10-03_13h36.32.575,motor sequence learning task,2022.2.2,60.024405927607134,
50,c,,,,,13,1,53,2,417.9599626000272,418.9596979999915,418.9596979999915,418.9596979999915,418.9596979999915,418.9596979999915,419.9597790000262,419.9597790000262,c,1,0.6762040000176057,,822185,001,2022-10-03_13h36.32.575,motor sequence learning task,2022.2.2,60.024405927607134,
150,v,,,,,13,2,54,1,420.65972640004475,421.6594960000366,421.6594960000366,421.6594960000366,421.6594960000366,421.6594960000366,422.65948190004565,422.65948190004565,v,1,0.7402073999401182,,822185,001,2022-10-03_13h36.32.575,motor sequence learning task,2022.2.2,60.024405927607134,
-150,z,,,,,13,3,55,3,423.42616610007826,424.42583190009464,424.42583190009464,424.42583190009464,424.42583190009464,424.42583190009464,425.42568119999487,425.42568119999487,z,1,0.566958999959752,,822185,001,2022-10-03_13h36.32.575,motor sequence learning task,2022.2.2,60.024405927607134,
150,v,,,,,14,0,56,1,426.0257650000276,427.0255686000455,427.0255686000455,427.0255686000455,427.0255686000455,427.0255686000455,428.02540859999135,428.02540859999135,v,1,0.5611864000093192,,822185,001,2022-10-03_13h36.32.575,motor sequence learning task,2022.2.2,60.024405927607134,
-150,z,,,,,14,1,57,3,428.60862900002394,429.60845770000014,429.60845770000014,429.60845770000014,429.60845770000014,429.60845770000014,430.608373300056,430.608373300056,z,1,0.6171328999334946,,822185,001,2022-10-03_13h36.32.575,motor sequence learning task,2022.2.2,60.024405927607134,
-150,z,,,,,14,2,58,3,431.2417924000183,432.2414960000897,432.2414960000897,432.2414960000897,432.2414960000897,432.2414960000897,433.2413961000275,433.2413961000275,z,1,0.5411011000396684,,822185,001,2022-10-03_13h36.32.575,motor sequence learning task,2022.2.2,60.024405927607134,
-150,z,,,,,14,3,59,3,433.80772640008945,434.7912283000769,434.7912283000769,434.7912283000769,434.7912283000769,434.8078380000079,435.80766920000315,435.80766920000315,z,1,0.7331549000227824,,822185,001,2022-10-03_13h36.32.575,motor sequence learning task,2022.2.2,60.024405927607134,
50,c,,,,,15,0,60,2,436.55761050002184,437.5574887000257,437.5574887000257,437.5574887000257,437.5574887000257,437.5574887000257,438.5572658000747,438.5572658000747,c,1,0.7015927000902593,,822185,001,2022-10-03_13h36.32.575,motor sequence learning task,2022.2.2,60.024405927607134,
50,c,,,,,15,1,61,2,439.2906891000457,440.2904899000423,440.2904899000423,440.2904899000423,440.2904899000423,440.2904899000423,441.29028800001834,441.29028800001834,c,1,0.5288450000807643,,822185,001,2022-10-03_13h36.32.575,motor sequence learning task,2022.2.2,60.024405927607134,
-50,x,,,,,15,2,62,0,441.8405133000342,442.8402001000941,442.8402001000941,442.8402001000941,442.8402001000941,442.8402001000941,443.84002080000937,443.84002080000937,x,1,0.5419319999637082,,822185,001,2022-10-03_13h36.32.575,motor sequence learning task,2022.2.2,60.024405927607134,
-50,x,,,,,15,3,63,0,444.40666050009895,445.40652620000765,445.40652620000765,445.40652620000765,445.40652620000765,445.40652620000765,446.40643740003,446.40643740003,x,1,0.4648562999209389,,822185,001,2022-10-03_13h36.32.575,motor sequence learning task,2022.2.2,60.024405927607134,
50,c,,,,,16,0,64,2,446.8897190000862,447.8895387999946,447.8895387999946,447.8895387999946,447.8895387999946,447.8895387999946,448.88950540008955,448.88950540008955,c,1,0.7345536999637261,,822185,001,2022-10-03_13h36.32.575,motor sequence learning task,2022.2.2,60.024405927607134,
50,c,,,,,16,1,65,2,449.6560539000202,450.65580619999673,450.65580619999673,450.65580619999673,450.65580619999673,450.65580619999673,451.6557186000282,451.6557186000282,c,1,0.6919013999868184,,822185,001,2022-10-03_13h36.32.575,motor sequence learning task,2022.2.2,60.024405927607134,
150,v,,,,,16,2,66,1,452.37254350003786,453.37220750004053,453.37220750004053,453.37220750004053,453.37220750004053,453.37220750004053,454.37202740006614,454.37202740006614,v,1,0.7589216999476776,,822185,001,2022-10-03_13h36.32.575,motor sequence learning task,2022.2.2,60.024405927607134,
-50,x,,,,,16,3,67,0,455.1552920000395,456.1551471001003,456.1551471001003,456.1551471001003,456.1551471001003,456.1551471001003,457.1550003000302,457.1550003000302,x,1,0.84381150000263,,822185,001,2022-10-03_13h36.32.575,motor sequence learning task,2022.2.2,60.024405927607134,
50,c,,,,,17,0,68,2,458.02179270004854,459.00473150005564,459.00473150005564,459.00473150005564,459.00473150005564,459.02137020009104,460.02129750000313,460.02129750000313,c,1,0.5618940000422299,,822185,001,2022-10-03_13h36.32.575,motor sequence learning task,2022.2.2,60.024405927607134,
150,v,,,,,17,1,69,1,460.604568400071,461.60437650000677,461.60437650000677,461.60437650000677,461.60437650000677,461.60437650000677,462.6041840000544,462.6041840000544,v,1,0.5665557000320405,,822185,001,2022-10-03_13h36.32.575,motor sequence learning task,2022.2.2,60.024405927607134,
150,v,,,,,17,2,70,1,463.1875024000183,464.18752530007623,464.18752530007623,464.18752530007623,464.18752530007623,464.18752530007623,465.18738810007926,465.18738810007926,v,1,0.5478615000611171,,822185,001,2022-10-03_13h36.32.575,motor sequence learning task,2022.2.2,60.024405927607134,
50,c,,,,,17,3,71,2,465.75406710000243,466.73717070010025,466.73717070010025,466.73717070010025,466.73717070010025,466.75377650000155,467.7535798000172,467.7535798000172,c,1,0.7398467999882996,,822185,001,2022-10-03_13h36.32.575,motor sequence learning task,2022.2.2,60.024405927607134,
150,v,,,,,18,0,72,1,468.52021109999623,469.52029650006443,469.52029650006443,469.52029650006443,469.52029650006443,469.52029650006443,470.5199884000467,470.5199884000467,v,1,0.5705301000270993,,822185,001,2022-10-03_13h36.32.575,motor sequence learning task,2022.2.2,60.024405927607134,
-150,z,,,,,18,1,73,3,471.1199395000003,472.119901600061,472.119901600061,472.119901600061,472.119901600061,472.119901600061,473.11970330006443,473.11970330006443,z,1,0.5804298999719322,,822185,001,2022-10-03_13h36.32.575,motor sequence learning task,2022.2.2,60.024405927607134,
50,c,,,,,18,2,74,2,473.7196400000248,474.7193665000377,474.7193665000377,474.7193665000377,474.7193665000377,474.7193665000377,475.71937500010245,475.71937500010245,c,1,0.8731278000632301,,822185,001,2022-10-03_13h36.32.575,motor sequence learning task,2022.2.2,60.024405927607134,
-150,z,,,,,18,3,75,3,476.6192747000605,477.619016700075,477.619016700075,477.619016700075,477.619016700075,477.619016700075,478.61884040001314,478.61884040001314,z,1,0.7514700999017805,,822185,001,2022-10-03_13h36.32.575,motor sequence learning task,2022.2.2,60.024405927607134,
-150,z,,,,,19,0,76,3,479.4021706000203,480.40192269999534,480.40192269999534,480.40192269999534,480.40192269999534,480.40192269999534,481.4019045000896,481.4019045000896,z,1,0.6520979000488296,,822185,001,2022-10-03_13h36.32.575,motor sequence learning task,2022.2.2,60.024405927607134,
-150,z,,,,,19,1,77,3,482.08534650004003,483.0850594000658,483.0850594000658,483.0850594000658,483.0850594000658,483.0850594000658,484.08506340009626,484.08506340009626,z,1,0.557836199994199,,822185,001,2022-10-03_13h36.32.575,motor sequence learning task,2022.2.2,60.024405927607134,
-150,z,,,,,19,2,78,3,484.66827500006184,485.6681809000438,485.6681809000438,485.6681809000438,485.6681809000438,485.6681809000438,486.66795880009886,486.66795880009886,z,1,0.5738122999900952,,822185,001,2022-10-03_13h36.32.575,motor sequence learning task,2022.2.2,60.024405927607134,
-50,x,,,,,19,3,79,0,487.26803310005926,488.26777730009053,488.26777730009053,488.26777730009053,488.26777730009053,488.26777730009053,489.2675849000225,489.2675849000225,x,1,0.608160600066185,,822185,001,2022-10-03_13h36.32.575,motor sequence learning task,2022.2.2,60.024405927607134,
-150,z,,,,,20,0,80,3,489.90093300002627,490.9004344000714,490.9004344000714,490.9004344000714,490.9004344000714,490.9004344000714,491.90055140003096,491.90055140003096,z,1,0.6227518999949098,,822185,001,2022-10-03_13h36.32.575,motor sequence learning task,2022.2.2,60.024405927607134,
-50,x,,,,,20,1,81,0,492.5505434999941,493.55028090009,493.55028090009,493.55028090009,493.55028090009,493.55028090009,494.5501652000239,494.5501652000239,x,1,0.7106065999250859,,822185,001,2022-10-03_13h36.32.575,motor sequence learning task,2022.2.2,60.024405927607134,
50,c,,,,,20,2,82,2,495.2834155000746,496.2835038000485,496.2835038000485,496.2835038000485,496.2835038000485,496.2835038000485,497.2833556000842,497.2833556000842,c,1,0.7815571000101045,,822185,001,2022-10-03_13h36.32.575,motor sequence learning task,2022.2.2,60.024405927607134,
150,v,,,,,20,3,83,1,498.08308880007826,499.0831042000791,499.0831042000791,499.0831042000791,499.0831042000791,499.0831042000791,500.082894399995,500.082894399995,v,1,0.6003823999781162,,822185,001,2022-10-03_13h36.32.575,motor sequence learning task,2022.2.2,60.024405927607134,
50,c,,,,,21,0,84,2,500.6994436000241,501.69923030002974,501.69923030002974,501.69923030002974,501.69923030002974,501.69923030002974,502.6991852000356,502.6991852000356,c,1,0.8075337000191212,,822185,001,2022-10-03_13h36.32.575,motor sequence learning task,2022.2.2,60.024405927607134,
-150,z,,,,,21,1,85,3,503.53249410004355,504.5323892000597,504.5323892000597,504.5323892000597,504.5323892000597,504.5323892000597,505.5322272001067,505.5322272001067,z,1,0.49759939999785274,,822185,001,2022-10-03_13h36.32.575,motor sequence learning task,2022.2.2,60.024405927607134,
-50,x,,,,,21,2,86,0,506.048856300069,507.0484980000183,507.0484980000183,507.0484980000183,507.0484980000183,507.0484980000183,508.0486346000107,508.0486346000107,x,1,0.6387872999766842,,822185,001,2022-10-03_13h36.32.575,motor sequence learning task,2022.2.2,60.024405927607134,
-50,x,,,,,21,3,87,0,508.71509950002655,509.71488550002687,509.71488550002687,509.71488550002687,509.71488550002687,509.71488550002687,510.7147635000292,510.7147635000292,x,1,0.44669280003290623,,822185,001,2022-10-03_13h36.32.575,motor sequence learning task,2022.2.2,60.024405927607134,
150,v,,,,,22,0,88,1,511.181499700062,512.1813318000641,512.1813318000641,512.1813318000641,512.1813318000641,512.1813318000641,513.1812724000774,513.1812724000774,v,1,0.7281194000970572,,822185,001,2022-10-03_13h36.32.575,motor sequence learning task,2022.2.2,60.024405927607134,
-150,z,,,,,22,1,89,3,513.9311587000266,514.9310344000114,514.9310344000114,514.9310344000114,514.9310344000114,514.9310344000114,515.9308673000196,515.9308673000196,z,1,0.6871139999711886,,822185,001,2022-10-03_13h36.32.575,motor sequence learning task,2022.2.2,60.024405927607134,
150,v,,,,,22,2,90,1,516.6472333000274,517.6473063000012,517.6473063000012,517.6473063000012,517.6473063000012,517.6473063000012,518.6471700000111,518.6471700000111,v,1,0.6938542999560013,,822185,001,2022-10-03_13h36.32.575,motor sequence learning task,2022.2.2,60.024405927607134,
-50,x,,,,,22,3,91,0,519.3637830000371,520.3637330000056,520.3637330000056,520.3637330000056,520.3637330000056,520.3637330000056,521.3635681000305,521.3635681000305,x,1,0.6665628999471664,,822185,001,2022-10-03_13h36.32.575,motor sequence learning task,2022.2.2,60.024405927607134,
50,c,,,,,23,0,92,2,522.046792200068,523.0464910001028,523.0464910001028,523.0464910001028,523.0464910001028,523.0464910001028,524.046527700033,524.046527700033,c,1,0.7856019999599084,,822185,001,2022-10-03_13h36.32.575,motor sequence learning task,2022.2.2,60.024405927607134,
150,v,,,,,23,1,93,1,524.8630523000611,525.8628234000644,525.8628234000644,525.8628234000644,525.8628234000644,525.8628234000644,526.862801100011,526.862801100011,v,1,0.7329054999863729,,822185,001,2022-10-03_13h36.32.575,motor sequence learning task,2022.2.2,60.024405927607134,
150,v,,,,,23,2,94,1,527.6127321000677,528.6126308999956,528.6126308999956,528.6126308999956,528.6126308999956,528.6126308999956,529.6124886000762,529.6124886000762,v,1,1.0157865000655875,530.6124317999929,822185,001,2022-10-03_13h36.32.575,motor sequence learning task,2022.2.2,60.024405927607134,
50,c,,,,,23,3,95,2,530.6456909000408,531.6454961000709,531.6454961000709,531.6454961000709,531.6454961000709,531.6454961000709,532.6453547000419,532.6453547000419,c,1,0.8448758999584243,,822185,001,2022-10-03_13h36.32.575,motor sequence learning task,2022.2.2,60.024405927607134,
